"session","task","run","subj","name","word","trial.type","pc","color","iti","time.target.onset.abs","time.scan.start","trial.num","listener1","listener2","correctcolor","response.final","acc.final","rt","item","time.target.onset","time.rt.abs","time.rt","acc","time.block1.on","time.block2.on","time.block3.on","time.block1.off","time.block2.off","time.block3.off","is.analysis.group","is.implausible.rt","is.artifactual.rt","error"
"pro","stp",1,"107321","pro_stp_run1_107321","WHITE","incon","mi","purple",2400,127462,96750,1,"purple","purple","purple","purple","1",827.5,"purpleWHITE",30.712,128289.5,858.212,1,28.406,231.213,434.006,202.827,405.62,608.427,TRUE,FALSE,FALSE,0
"pro","stp",1,"107321","pro_stp_run1_107321","WHITE","incon","mi","purple",1200,132262,96750,2,"purple","purple","purple","purple","1",558,"purpleWHITE",35.512,132820,593.512,1,28.406,231.213,434.006,202.827,405.62,608.427,TRUE,FALSE,FALSE,0
"pro","stp",1,"107321","pro_stp_run1_107321","BLACK","incon","pc50","green",3600,135862,96750,3,"green","green","green","green","1",723.5,"greenBLACK",39.112,136585.5,762.612,1,28.406,231.213,434.006,202.827,405.62,608.427,TRUE,FALSE,FALSE,0
"pro","stp",1,"107321","pro_stp_run1_107321","PINK","congr","pc50","pink",3600,141862,96750,4,"pink","pink","pink","pink","1",NA,"pinkPINK",45.112,NA,NA,1,28.406,231.213,434.006,202.827,405.62,608.427,TRUE,NA,FALSE,0
"pro","stp",1,"107321","pro_stp_run1_107321","BLUE","congr","mi","blue",2400,147862,96750,5,"blue","blue","blue","blue","1",671.5,"blueBLUE",51.112,148533.5,722.612,1,28.406,231.213,434.006,202.827,405.62,608.427,TRUE,FALSE,FALSE,0
"pro","stp",1,"107321","pro_stp_run1_107321","YELLOW","incon","pc50","pink",3600,152661,96750,6,"pink","pink","pink","pink","1",725.5,"pinkYELLOW",55.911,153386.5,781.411,1,28.406,231.213,434.006,202.827,405.62,608.427,TRUE,FALSE,FALSE,0
"pro","stp",1,"107321","pro_stp_run1_107321","BLUE","incon","mi","white",2400,158661,96750,7,"white","white","white","white","1",585.5,"whiteBLUE",61.911,159246.5,647.411,1,28.406,231.213,434.006,202.827,405.62,608.427,TRUE,FALSE,FALSE,0
"pro","stp",1,"107321","pro_stp_run1_107321","YELLOW","congr","pc50","yellow",1200,163461,96750,8,"yellow","yellow","yellow","yellow","1",627.5,"yellowYELLOW",66.711,164088.5,694.211,1,28.406,231.213,434.006,202.827,405.62,608.427,TRUE,FALSE,FALSE,0
"pro","stp",1,"107321","pro_stp_run1_107321","PURPLE","congr","mi","purple",1200,167061,96750,9,"purple","purple","purple","purple","1",583,"purplePURPLE",70.311,167644,653.311,1,28.406,231.213,434.006,202.827,405.62,608.427,TRUE,FALSE,FALSE,0
"pro","stp",1,"107321","pro_stp_run1_107321","WHITE","congr","mi","white",2400,170661,96750,10,"white","white","white","white","1",498,"whiteWHITE",73.911,171159,571.911,1,28.406,231.213,434.006,202.827,405.62,608.427,TRUE,FALSE,FALSE,0
"pro","stp",1,"107321","pro_stp_run1_107321","BLUE","incon","mi","red",3600,175461,96750,11,"red","red","red","red","1",646.5,"redBLUE",78.711,176107.5,725.211,1,28.406,231.213,434.006,202.827,405.62,608.427,TRUE,FALSE,FALSE,0
"pro","stp",1,"107321","pro_stp_run1_107321","PURPLE","incon","mi","blue",1200,181461,96750,12,"blue","blue","blue","blue","1",739.5,"bluePURPLE",84.711,182200.5,824.211,1,28.406,231.213,434.006,202.827,405.62,608.427,TRUE,FALSE,FALSE,0
"pro","stp",1,"107321","pro_stp_run1_107321","BLACK","congr","pc50","black",1200,185060,96750,13,"black","black","black","black","1",567.5,"blackBLACK",88.31,185627.5,655.81,1,28.406,231.213,434.006,202.827,405.62,608.427,TRUE,FALSE,FALSE,0
"pro","stp",1,"107321","pro_stp_run1_107321","RED","congr","mi","red",2400,188660,96750,14,"red","red","red","red","1",NA,"redRED",91.91,NA,NA,1,28.406,231.213,434.006,202.827,405.62,608.427,TRUE,NA,FALSE,0
"pro","stp",1,"107321","pro_stp_run1_107321","PURPLE","incon","mi","blue",3600,193460,96750,15,"blue","blue","blue","blue","1",725.5,"bluePURPLE",96.71,194185.5,822.21,1,28.406,231.213,434.006,202.827,405.62,608.427,TRUE,FALSE,FALSE,0
"pro","stp",1,"107321","pro_stp_run1_107321","WHITE","incon","mi","red",1200,199460,96750,16,"red","red","red","red","1",681,"redWHITE",102.71,200141,783.71,1,28.406,231.213,434.006,202.827,405.62,608.427,TRUE,FALSE,FALSE,0
"pro","stp",1,"107321","pro_stp_run1_107321","PINK","incon","pc50","black",2400,203060,96750,17,"black","black","black","black","1",659,"blackPINK",106.31,203719,765.31,1,28.406,231.213,434.006,202.827,405.62,608.427,TRUE,FALSE,FALSE,0
"pro","stp",1,"107321","pro_stp_run1_107321","WHITE","incon","mi","red",1200,207860,96750,18,"red","red","red","red","1",678,"redWHITE",111.11,208538,789.11,1,28.406,231.213,434.006,202.827,405.62,608.427,TRUE,FALSE,FALSE,0
"pro","stp",1,"107321","pro_stp_run1_107321","BLUE","incon","mi","white",3600,211460,96750,19,"white","white","white","white","1",NA,"whiteBLUE",114.71,NA,NA,1,28.406,231.213,434.006,202.827,405.62,608.427,TRUE,NA,FALSE,0
"pro","stp",1,"107321","pro_stp_run1_107321","RED","incon","mi","blue",2400,217459,96750,20,"blue","blue","blue","blue","1",660.5,"blueRED",120.709,218119.5,781.209,1,28.406,231.213,434.006,202.827,405.62,608.427,TRUE,FALSE,FALSE,0
"pro","stp",1,"107321","pro_stp_run1_107321","GREEN","congr","pc50","green",1200,222259,96750,21,"green","green","green","green","1",NA,"greenGREEN",125.509,NA,NA,1,28.406,231.213,434.006,202.827,405.62,608.427,TRUE,NA,FALSE,0
"pro","stp",1,"107321","pro_stp_run1_107321","YELLOW","congr","pc50","yellow",3600,225859,96750,22,"yellow","yellow","yellow","yellow","1",NA,"yellowYELLOW",129.109,NA,NA,1,28.406,231.213,434.006,202.827,405.62,608.427,TRUE,NA,FALSE,0
"pro","stp",1,"107321","pro_stp_run1_107321","RED","incon","mi","purple",2400,231859,96750,23,"purple","purple","purple","purple","1",772,"purpleRED",135.109,232631,907.109,1,28.406,231.213,434.006,202.827,405.62,608.427,TRUE,FALSE,FALSE,0
"pro","stp",1,"107321","pro_stp_run1_107321","GREEN","incon","pc50","pink",3600,236659,96750,24,"pink","pink","pink","pink","1",NA,"pinkGREEN",139.909,NA,NA,1,28.406,231.213,434.006,202.827,405.62,608.427,TRUE,NA,FALSE,0
"pro","stp",1,"107321","pro_stp_run1_107321","GREEN","congr","pc50","green",3600,242659,96750,25,"green","green","green","green","1",689,"greenGREEN",145.909,243348,834.909,1,28.406,231.213,434.006,202.827,405.62,608.427,TRUE,FALSE,FALSE,0
"pro","stp",1,"107321","pro_stp_run1_107321","BLUE","incon","mi","purple",3600,248658,96750,26,"purple","purple","purple","purple","1",759,"purpleBLUE",151.908,249417,910.908,1,28.406,231.213,434.006,202.827,405.62,608.427,TRUE,FALSE,FALSE,0
"pro","stp",1,"107321","pro_stp_run1_107321","GREEN","incon","pc50","yellow",2400,254658,96750,27,"yellow","yellow","yellow","yellow","1",515.5,"yellowGREEN",157.908,255173.5,673.408,1,28.406,231.213,434.006,202.827,405.62,608.427,TRUE,FALSE,FALSE,0
"pro","stp",1,"107321","pro_stp_run1_107321","PURPLE","congr","mi","purple",2400,259458,96750,28,"purple","purple","purple","purple","1",533.5,"purplePURPLE",162.708,259991.5,696.208,1,28.406,231.213,434.006,202.827,405.62,608.427,TRUE,FALSE,FALSE,0
"pro","stp",1,"107321","pro_stp_run1_107321","RED","incon","mi","purple",3600,264258,96750,29,"purple","purple","purple","purple","1",538,"purpleRED",167.508,264796,705.508,1,28.406,231.213,434.006,202.827,405.62,608.427,TRUE,FALSE,FALSE,0
"pro","stp",1,"107321","pro_stp_run1_107321","BLUE","congr","mi","blue",1200,270258,96750,30,"blue","blue","blue","blue","1",439,"blueBLUE",173.508,270697,612.508,1,28.406,231.213,434.006,202.827,405.62,608.427,TRUE,FALSE,FALSE,0
"pro","stp",1,"107321","pro_stp_run1_107321","PURPLE","incon","mi","white",1200,273858,96750,31,"white","white","white","white","1",555.5,"whitePURPLE",177.108,274413.5,732.608,1,28.406,231.213,434.006,202.827,405.62,608.427,TRUE,FALSE,FALSE,0
"pro","stp",1,"107321","pro_stp_run1_107321","WHITE","incon","mi","blue",3600,277457,96750,32,"blue","blue","blue","blue","1",666,"blueWHITE",180.707,278123,846.707,1,28.406,231.213,434.006,202.827,405.62,608.427,TRUE,FALSE,FALSE,0
"pro","stp",1,"107321","pro_stp_run1_107321","PURPLE","incon","mi","red",1200,283457,96750,33,"red","red","red","red","1",611.5,"redPURPLE",186.707,284068.5,798.207,1,28.406,231.213,434.006,202.827,405.62,608.427,TRUE,FALSE,FALSE,0
"pro","stp",1,"107321","pro_stp_run1_107321","RED","incon","mi","blue",2400,287057,96750,34,"blue","blue","blue","blue","1",620,"blueRED",190.307,287677,810.307,1,28.406,231.213,434.006,202.827,405.62,608.427,TRUE,FALSE,FALSE,0
"pro","stp",1,"107321","pro_stp_run1_107321","RED","incon","mi","white",1200,291857,96750,35,"white","white","white","white","1",643.5,"whiteRED",195.107,292500.5,838.607,1,28.406,231.213,434.006,202.827,405.62,608.427,TRUE,FALSE,FALSE,0
"pro","stp",1,"107321","pro_stp_run1_107321","YELLOW","incon","pc50","black",2400,295457,96750,36,"black","black","black","black","1",571.5,"blackYELLOW",198.707,296028.5,770.207,1,28.406,231.213,434.006,202.827,405.62,608.427,TRUE,FALSE,FALSE,0
"pro","stp",1,"107321","pro_stp_run1_107321","BLUE","incon","mi","purple",1200,330256,96750,37,"purple","purple","purple","purple","1",717,"purpleBLUE",233.506,330973,950.506,1,28.406,231.213,434.006,202.827,405.62,608.427,TRUE,FALSE,FALSE,0
"pro","stp",1,"107321","pro_stp_run1_107321","WHITE","congr","mi","white",2400,333856,96750,38,"white","white","white","white","1",460,"whiteWHITE",237.106,334316,697.106,1,28.406,231.213,434.006,202.827,405.62,608.427,TRUE,FALSE,FALSE,0
"pro","stp",1,"107321","pro_stp_run1_107321","YELLOW","incon","pc50","pink",3600,338656,96750,39,"pink","pink","pink","pink","1",671,"pinkYELLOW",241.906,339327,912.906,1,28.406,231.213,434.006,202.827,405.62,608.427,TRUE,FALSE,FALSE,0
"pro","stp",1,"107321","pro_stp_run1_107321","PURPLE","congr","mi","purple",1200,344655,96750,40,"purple","purple","purple","purple","1",511.5,"purplePURPLE",247.905,345166.5,759.405,1,28.406,231.213,434.006,202.827,405.62,608.427,TRUE,FALSE,FALSE,0
"pro","stp",1,"107321","pro_stp_run1_107321","GREEN","incon","pc50","pink",1200,348255,96750,41,"pink","pink","pink","pink","1",579,"pinkGREEN",251.505,348834,830.505,1,28.406,231.213,434.006,202.827,405.62,608.427,TRUE,FALSE,FALSE,0
"pro","stp",1,"107321","pro_stp_run1_107321","WHITE","incon","mi","blue",2400,351855,96750,42,"blue","blue","blue","blue","1",535,"blueWHITE",255.105,352390,790.105,1,28.406,231.213,434.006,202.827,405.62,608.427,TRUE,FALSE,FALSE,0
"pro","stp",1,"107321","pro_stp_run1_107321","RED","incon","mi","blue",3600,356655,96750,43,"blue","blue","blue","blue","1",587,"blueRED",259.905,357242,846.905,1,28.406,231.213,434.006,202.827,405.62,608.427,TRUE,FALSE,FALSE,0
"pro","stp",1,"107321","pro_stp_run1_107321","BLUE","congr","mi","blue",3600,362655,96750,44,"blue","blue","blue","blue","1",489,"blueBLUE",265.905,363144,754.905,1,28.406,231.213,434.006,202.827,405.62,608.427,TRUE,FALSE,FALSE,0
"pro","stp",1,"107321","pro_stp_run1_107321","PINK","congr","pc50","pink",2400,368655,96750,45,"pink","pink","pink","pink","1",485.5,"pinkPINK",271.905,369140.5,757.405,1,28.406,231.213,434.006,202.827,405.62,608.427,TRUE,FALSE,FALSE,0
"pro","stp",1,"107321","pro_stp_run1_107321","GREEN","congr","pc50","green",2400,373454,96750,46,"green - unsure, might be red","green","green","green","1",504.5,"greenGREEN",276.704,373958.5,781.204,1,28.406,231.213,434.006,202.827,405.62,608.427,TRUE,FALSE,FALSE,0
"pro","stp",1,"107321","pro_stp_run1_107321","BLUE","incon","mi","red",3600,378254,96750,47,"red","red","red","red","1",612.5,"redBLUE",281.504,378866.5,894.004,1,28.406,231.213,434.006,202.827,405.62,608.427,TRUE,FALSE,FALSE,0
"pro","stp",1,"107321","pro_stp_run1_107321","GREEN","incon","pc50","yellow",1200,384254,96750,48,"yellow","yellow","yellow","yellow","1",532,"yellowGREEN",287.504,384786,819.504,1,28.406,231.213,434.006,202.827,405.62,608.427,TRUE,FALSE,FALSE,0
"pro","stp",1,"107321","pro_stp_run1_107321","WHITE","incon","mi","red",3600,387854,96750,49,"red - """"""""bl-- red""""""""","bl--red","red","unintelligible","unintelligible",626,"redWHITE",291.104,388480,917.104,NA,28.406,231.213,434.006,202.827,405.62,608.427,TRUE,FALSE,FALSE,NA
"pro","stp",1,"107321","pro_stp_run1_107321","BLUE","incon","mi","white",2400,393854,96750,50,"white","white","white","white","1",650.5,"whiteBLUE",297.104,394504.5,947.604,1,28.406,231.213,434.006,202.827,405.62,608.427,TRUE,FALSE,FALSE,0
"pro","stp",1,"107321","pro_stp_run1_107321","BLUE","congr","mi","blue",3600,398654,96750,51,"blue","blue","blue","blue","1",577.5,"blueBLUE",301.904,399231.5,879.404,1,28.406,231.213,434.006,202.827,405.62,608.427,TRUE,FALSE,FALSE,0
"pro","stp",1,"107321","pro_stp_run1_107321","WHITE","incon","mi","purple",1200,404653,96750,52,"purple","purple","purple","purple","1",819,"purpleWHITE",307.903,405472,1126.903,1,28.406,231.213,434.006,202.827,405.62,608.427,TRUE,FALSE,FALSE,0
"pro","stp",1,"107321","pro_stp_run1_107321","YELLOW","congr","pc50","yellow",1200,408253,96750,53,"yellow","yellow","yellow","yellow","1",572.5,"yellowYELLOW",311.503,408825.5,884.003,1,28.406,231.213,434.006,202.827,405.62,608.427,TRUE,FALSE,FALSE,0
"pro","stp",1,"107321","pro_stp_run1_107321","YELLOW","congr","pc50","yellow",2400,411853,96750,54,"yellow","yellow","yellow","yellow","1",399,"yellowYELLOW",315.103,412252,714.103,1,28.406,231.213,434.006,202.827,405.62,608.427,TRUE,FALSE,FALSE,0
"pro","stp",1,"107321","pro_stp_run1_107321","PURPLE","incon","mi","blue",1200,416653,96750,55,"purple - """"""""pur-- blue""""""""","purple…. Blue","blue","purple","0",703,"bluePURPLE",319.903,417356,1022.903,0,28.406,231.213,434.006,202.827,405.62,608.427,TRUE,FALSE,FALSE,1
"pro","stp",1,"107321","pro_stp_run1_107321","RED","incon","mi","purple",3600,420253,96750,56,"purple","purple","purple","purple","1",797,"purpleRED",323.503,421050,1120.503,1,28.406,231.213,434.006,202.827,405.62,608.427,TRUE,FALSE,FALSE,0
"pro","stp",1,"107321","pro_stp_run1_107321","RED","incon","mi","white",3600,426253,96750,57,"white","white","white","white","1",871.5,"whiteRED",329.503,427124.5,1201.003,1,28.406,231.213,434.006,202.827,405.62,608.427,TRUE,FALSE,FALSE,0
"pro","stp",1,"107321","pro_stp_run1_107321","WHITE","incon","mi","red",1200,432253,96750,58,"red - unsure","red","red","red","1",694.5,"redWHITE",335.503,432947.5,1030.003,1,28.406,231.213,434.006,202.827,405.62,608.427,TRUE,FALSE,FALSE,0
"pro","stp",1,"107321","pro_stp_run1_107321","YELLOW","incon","pc50","black",2400,435852,96750,59,"black","black","black","black","1",610,"blackYELLOW",339.102,436462,949.102,1,28.406,231.213,434.006,202.827,405.62,608.427,TRUE,FALSE,FALSE,0
"pro","stp",1,"107321","pro_stp_run1_107321","PURPLE","congr","mi","purple",2400,440652,96750,60,"purple","purple","purple","purple","1",582.5,"purplePURPLE",343.902,441234.5,926.402,1,28.406,231.213,434.006,202.827,405.62,608.427,TRUE,FALSE,FALSE,0
"pro","stp",1,"107321","pro_stp_run1_107321","PURPLE","incon","mi","blue",1200,445452,96750,61,"blue","blue","blue","blue","1",667,"bluePURPLE",348.702,446119,1015.702,1,28.406,231.213,434.006,202.827,405.62,608.427,TRUE,FALSE,FALSE,0
"pro","stp",1,"107321","pro_stp_run1_107321","BLACK","incon","pc50","green",2400,449052,96750,62,"green","green","green","green","1",664.5,"greenBLACK",352.302,449716.5,1016.802,1,28.406,231.213,434.006,202.827,405.62,608.427,TRUE,FALSE,FALSE,0
"pro","stp",1,"107321","pro_stp_run1_107321","BLACK","congr","pc50","black",3600,453852,96750,63,"black","black","black","black","1",512.5,"blackBLACK",357.102,454364.5,869.602,1,28.406,231.213,434.006,202.827,405.62,608.427,TRUE,FALSE,FALSE,0
"pro","stp",1,"107321","pro_stp_run1_107321","PURPLE","incon","mi","white",1200,459852,96750,64,"white","white","white","white","1",601,"whitePURPLE",363.102,460453,964.102,1,28.406,231.213,434.006,202.827,405.62,608.427,TRUE,FALSE,FALSE,0
"pro","stp",1,"107321","pro_stp_run1_107321","RED","incon","mi","purple",2400,463451,96750,65,"purple","purple","purple","purple","1",1219,"purpleRED",366.701,464670,1585.701,1,28.406,231.213,434.006,202.827,405.62,608.427,TRUE,FALSE,FALSE,0
"pro","stp",1,"107321","pro_stp_run1_107321","WHITE","incon","mi","purple",1200,468251,96750,66,"purple","purple","purple","purple","1",600.5,"purpleWHITE",371.501,468851.5,972.001,1,28.406,231.213,434.006,202.827,405.62,608.427,TRUE,FALSE,FALSE,0
"pro","stp",1,"107321","pro_stp_run1_107321","RED","congr","mi","red",1200,471851,96750,67,"red","red","red","red","1",745,"redRED",375.101,472596,1120.101,1,28.406,231.213,434.006,202.827,405.62,608.427,TRUE,FALSE,FALSE,0
"pro","stp",1,"107321","pro_stp_run1_107321","GREEN","congr","pc50","green",3600,475451,96750,68,"green","green","green","green","1",542.5,"greenGREEN",378.701,475993.5,921.201,1,28.406,231.213,434.006,202.827,405.62,608.427,TRUE,FALSE,FALSE,0
"pro","stp",1,"107321","pro_stp_run1_107321","BLUE","incon","mi","white",3600,481451,96750,69,"white","white","white","white","1",597.5,"whiteBLUE",384.701,482048.5,982.201,1,28.406,231.213,434.006,202.827,405.62,608.427,TRUE,FALSE,FALSE,0
"pro","stp",1,"107321","pro_stp_run1_107321","PURPLE","incon","mi","red",3600,487451,96750,70,"red","red","red","red","1",649.5,"redPURPLE",390.701,488100.5,1040.201,1,28.406,231.213,434.006,202.827,405.62,608.427,TRUE,FALSE,FALSE,0
"pro","stp",1,"107321","pro_stp_run1_107321","PINK","incon","pc50","black",2400,493451,96750,71,"black","black","black","black","1",665.5,"blackPINK",396.701,494116.5,1062.201,1,28.406,231.213,434.006,202.827,405.62,608.427,TRUE,FALSE,FALSE,0
"pro","stp",1,"107321","pro_stp_run1_107321","RED","incon","mi","blue",2400,498264,96750,72,"blue","blue","blue","blue","1",628.5,"blueRED",401.514,498892.5,1030.014,1,28.406,231.213,434.006,202.827,405.62,608.427,TRUE,FALSE,FALSE,0
"pro","stp",1,"107321","pro_stp_run1_107321","BLUE","congr","mi","blue",2400,533063,96750,73,"blue","blue","blue","blue","1",552,"blueBLUE",436.313,533615,988.313,1,28.406,231.213,434.006,202.827,405.62,608.427,TRUE,FALSE,FALSE,0
"pro","stp",1,"107321","pro_stp_run1_107321","PINK","incon","pc50","black",3600,537862,96750,74,"black","black","black","black","1",625,"blackPINK",441.112,538487,1066.112,1,28.406,231.213,434.006,202.827,405.62,608.427,TRUE,FALSE,FALSE,0
"pro","stp",1,"107321","pro_stp_run1_107321","BLUE","incon","mi","white",3600,543862,96750,75,"white","white","white","white","1",530,"whiteBLUE",447.112,544392,977.112,1,28.406,231.213,434.006,202.827,405.62,608.427,TRUE,FALSE,FALSE,0
"pro","stp",1,"107321","pro_stp_run1_107321","PURPLE","incon","mi","blue",1200,549862,96750,76,"blue","blue","blue","blue","1",603.5,"bluePURPLE",453.112,550465.5,1056.612,1,28.406,231.213,434.006,202.827,405.62,608.427,TRUE,FALSE,FALSE,0
"pro","stp",1,"107321","pro_stp_run1_107321","BLACK","congr","pc50","black",2400,553462,96750,77,"black","black","black","black","1",570,"blackBLACK",456.712,554032,1026.712,1,28.406,231.213,434.006,202.827,405.62,608.427,TRUE,FALSE,FALSE,0
"pro","stp",1,"107321","pro_stp_run1_107321","BLUE","incon","mi","purple",1200,558262,96750,78,"purple","purple","purple","purple","1",736,"purpleBLUE",461.512,558998,1197.512,1,28.406,231.213,434.006,202.827,405.62,608.427,TRUE,FALSE,FALSE,0
"pro","stp",1,"107321","pro_stp_run1_107321","WHITE","incon","mi","blue",1200,561862,96750,79,"blue","blue","blue","blue","1",652.5,"blueWHITE",465.112,562514.5,1117.612,1,28.406,231.213,434.006,202.827,405.62,608.427,TRUE,FALSE,FALSE,0
"pro","stp",1,"107321","pro_stp_run1_107321","PURPLE","congr","mi","purple",1200,565462,96750,80,"purple","purple","purple","purple","1",526,"purplePURPLE",468.712,565988,994.712,1,28.406,231.213,434.006,202.827,405.62,608.427,TRUE,FALSE,FALSE,0
"pro","stp",1,"107321","pro_stp_run1_107321","GREEN","congr","pc50","green",2400,569061,96750,81,"green","green","green","green","1",581,"greenGREEN",472.311,569642,1053.311,1,28.406,231.213,434.006,202.827,405.62,608.427,TRUE,FALSE,FALSE,0
"pro","stp",1,"107321","pro_stp_run1_107321","YELLOW","congr","pc50","yellow",3600,573861,96750,82,"yellow","yellow","yellow","yellow","1",502.5,"yellowYELLOW",477.111,574363.5,979.611,1,28.406,231.213,434.006,202.827,405.62,608.427,TRUE,FALSE,FALSE,0
"pro","stp",1,"107321","pro_stp_run1_107321","WHITE","incon","mi","purple",3600,579861,96750,83,"purple","purple","purple","purple","1",894,"purpleWHITE",483.111,580755,1377.111,1,28.406,231.213,434.006,202.827,405.62,608.427,TRUE,FALSE,FALSE,0
"pro","stp",1,"107321","pro_stp_run1_107321","BLACK","incon","pc50","green",2400,585861,96750,84,"green","green","green","green","1",672,"greenBLACK",489.111,586533,1161.111,1,28.406,231.213,434.006,202.827,405.62,608.427,TRUE,FALSE,FALSE,0
"pro","stp",1,"107321","pro_stp_run1_107321","PURPLE","congr","mi","purple",2400,590661,96750,85,"purple","purple","purple","purple","1",656,"purplePURPLE",493.911,591317,1149.911,1,28.406,231.213,434.006,202.827,405.62,608.427,TRUE,FALSE,FALSE,0
"pro","stp",1,"107321","pro_stp_run1_107321","BLUE","congr","mi","blue",3600,595461,96750,86,"blue","blue","blue","blue","1",581.5,"blueBLUE",498.711,596042.5,1080.211,1,28.406,231.213,434.006,202.827,405.62,608.427,TRUE,FALSE,FALSE,0
"pro","stp",1,"107321","pro_stp_run1_107321","GREEN","congr","pc50","green",3600,601460,96750,87,"green","green","green","green","1",607,"greenGREEN",504.71,602067,1111.71,1,28.406,231.213,434.006,202.827,405.62,608.427,TRUE,FALSE,FALSE,0
"pro","stp",1,"107321","pro_stp_run1_107321","YELLOW","incon","pc50","pink",1200,607460,96750,88,"pink","pink","pink","pink","1",762,"pinkYELLOW",510.71,608222,1272.71,1,28.406,231.213,434.006,202.827,405.62,608.427,TRUE,FALSE,FALSE,0
"pro","stp",1,"107321","pro_stp_run1_107321","RED","incon","mi","purple",1200,611060,96750,89,"purple","purple","purple","purple","1",754,"purpleRED",514.31,611814,1268.31,1,28.406,231.213,434.006,202.827,405.62,608.427,TRUE,FALSE,FALSE,0
"pro","stp",1,"107321","pro_stp_run1_107321","PURPLE","incon","mi","red",3600,614660,96750,90,"red","red","red","red","1",754,"redPURPLE",517.91,615414,1271.91,1,28.406,231.213,434.006,202.827,405.62,608.427,TRUE,FALSE,FALSE,0
"pro","stp",1,"107321","pro_stp_run1_107321","RED","incon","mi","white",2400,620660,96750,91,"white","white","white","white","1",678,"whiteRED",523.91,621338,1201.91,1,28.406,231.213,434.006,202.827,405.62,608.427,TRUE,FALSE,FALSE,0
"pro","stp",1,"107321","pro_stp_run1_107321","BLUE","incon","mi","white",2400,625460,96750,92,"white","white","white","white","1",586.5,"whiteBLUE",528.71,626046.5,1115.21,1,28.406,231.213,434.006,202.827,405.62,608.427,TRUE,FALSE,FALSE,0
"pro","stp",1,"107321","pro_stp_run1_107321","YELLOW","congr","pc50","yellow",1200,630259,96750,93,"yellow","yellow","yellow","yellow","1",499.5,"yellowYELLOW",533.509,630758.5,1033.009,1,28.406,231.213,434.006,202.827,405.62,608.427,TRUE,FALSE,FALSE,0
"pro","stp",1,"107321","pro_stp_run1_107321","RED","incon","mi","blue",3600,633859,96750,94,"blue","blue","blue","blue","1",756,"blueRED",537.109,634615,1293.109,1,28.406,231.213,434.006,202.827,405.62,608.427,TRUE,FALSE,FALSE,0
"pro","stp",1,"107321","pro_stp_run1_107321","WHITE","congr","mi","white",2400,639859,96750,95,"white","white","white","white","1",536.5,"whiteWHITE",543.109,640395.5,1079.609,1,28.406,231.213,434.006,202.827,405.62,608.427,TRUE,FALSE,FALSE,0
"pro","stp",1,"107321","pro_stp_run1_107321","RED","incon","mi","purple",1200,644659,96750,96,"purple","purple","purple","purple","1",668.5,"purpleRED",547.909,645327.5,1216.409,1,28.406,231.213,434.006,202.827,405.62,608.427,TRUE,FALSE,FALSE,0
"pro","stp",1,"107321","pro_stp_run1_107321","WHITE","incon","mi","purple",1200,648259,96750,97,"purple","purple","purple","purple","1",623.5,"purpleWHITE",551.509,648882.5,1175.009,1,28.406,231.213,434.006,202.827,405.62,608.427,TRUE,FALSE,FALSE,0
"pro","stp",1,"107321","pro_stp_run1_107321","RED","incon","mi","blue",2400,651859,96750,98,"blue","blue","blue","blue","1",703,"blueRED",555.109,652562,1258.109,1,28.406,231.213,434.006,202.827,405.62,608.427,TRUE,FALSE,FALSE,0
"pro","stp",1,"107321","pro_stp_run1_107321","RED","congr","mi","red",2400,656659,96750,99,"red","red","red","red","1",679,"redRED",559.909,657338,1238.909,1,28.406,231.213,434.006,202.827,405.62,608.427,TRUE,FALSE,FALSE,0
"pro","stp",1,"107321","pro_stp_run1_107321","GREEN","incon","pc50","yellow",3600,661458,96750,100,"yellow","yellow","yellow","yellow","1",728.5,"yellowGREEN",564.708,662186.5,1293.208,1,28.406,231.213,434.006,202.827,405.62,608.427,TRUE,FALSE,FALSE,0
"pro","stp",1,"107321","pro_stp_run1_107321","WHITE","incon","mi","red",3600,667458,96750,101,"red","red","red","red","1",645,"redWHITE",570.708,668103,1215.708,1,28.406,231.213,434.006,202.827,405.62,608.427,TRUE,FALSE,FALSE,0
"pro","stp",1,"107321","pro_stp_run1_107321","YELLOW","incon","pc50","black",1200,673458,96750,102,"black","black","black","black","1",695.5,"blackYELLOW",576.708,674153.5,1272.208,1,28.406,231.213,434.006,202.827,405.62,608.427,TRUE,FALSE,FALSE,0
"pro","stp",1,"107321","pro_stp_run1_107321","WHITE","incon","mi","red",2400,677058,96750,103,"red","red","red","red","1",696,"redWHITE",580.308,677754,1276.308,1,28.406,231.213,434.006,202.827,405.62,608.427,TRUE,FALSE,FALSE,0
"pro","stp",1,"107321","pro_stp_run1_107321","PURPLE","incon","mi","blue",1200,681858,96750,104,"blue","blue","blue","blue","1",795,"bluePURPLE",585.108,682653,1380.108,1,28.406,231.213,434.006,202.827,405.62,608.427,TRUE,FALSE,FALSE,0
"pro","stp",1,"107321","pro_stp_run1_107321","PINK","congr","pc50","pink",1200,685458,96750,105,"pink","pink","pink","pink","1",1175.5,"pinkPINK",588.708,686633.5,1764.208,1,28.406,231.213,434.006,202.827,405.62,608.427,TRUE,FALSE,FALSE,0
"pro","stp",1,"107321","pro_stp_run1_107321","BLUE","incon","mi","red",2400,689058,96750,106,"red","red","red","red","1",638,"redBLUE",592.308,689696,1230.308,1,28.406,231.213,434.006,202.827,405.62,608.427,TRUE,FALSE,FALSE,0
"pro","stp",1,"107321","pro_stp_run1_107321","PURPLE","incon","mi","white",3600,693857,96750,107,"white","white","white","white","1",541.5,"whitePURPLE",597.107,694398.5,1138.607,1,28.406,231.213,434.006,202.827,405.62,608.427,TRUE,FALSE,FALSE,0
"pro","stp",1,"107321","pro_stp_run1_107321","GREEN","incon","pc50","pink",3600,699857,96750,108,"pink","pink","pink","pink","1",695,"pinkGREEN",603.107,700552,1298.107,1,28.406,231.213,434.006,202.827,405.62,608.427,TRUE,FALSE,FALSE,0
"pro","stp",2,"107321","pro_stp_run2_107321","BLUE","congr","mi","blue",3600,137657,106944,1,"blue","blue","blue","blue","1",652.5,"blueBLUE",30.713,138309.5,683.213,1,28.42,231.213,434.02,202.828,405.635,608.428,TRUE,FALSE,FALSE,0
"pro","stp",2,"107321","pro_stp_run2_107321","PURPLE","incon","mi","white",1200,143657,106944,2,"white","white","white","white","1",551.5,"whitePURPLE",36.713,144208.5,588.213,1,28.42,231.213,434.02,202.828,405.635,608.428,TRUE,FALSE,FALSE,0
"pro","stp",2,"107321","pro_stp_run2_107321","PURPLE","incon","mi","red",1200,147257,106944,3,"red","red","red","red","1",500,"redPURPLE",40.313,147757,540.313,1,28.42,231.213,434.02,202.828,405.635,608.428,TRUE,FALSE,FALSE,0
"pro","stp",2,"107321","pro_stp_run2_107321","WHITE","incon","mi","red",1200,150857,106944,4,"red","red","red","red","1",545,"redWHITE",43.913,151402,588.913,1,28.42,231.213,434.02,202.828,405.635,608.428,TRUE,FALSE,FALSE,0
"pro","stp",2,"107321","pro_stp_run2_107321","PINK","incon","pc50","green",3600,154457,106944,5,"green","green","green","green","1",701,"greenPINK",47.513,155158,748.513,1,28.42,231.213,434.02,202.828,405.635,608.428,TRUE,FALSE,FALSE,0
"pro","stp",2,"107321","pro_stp_run2_107321","BLUE","incon","mi","white",3600,160456,106944,6,"white","white","white","white","1",540.5,"whiteBLUE",53.512,160996.5,594.012,1,28.42,231.213,434.02,202.828,405.635,608.428,TRUE,FALSE,FALSE,0
"pro","stp",2,"107321","pro_stp_run2_107321","RED","incon","mi","white",2400,166456,106944,7,"white","white","white","white","1",589,"whiteRED",59.512,167045,648.512,1,28.42,231.213,434.02,202.828,405.635,608.428,TRUE,FALSE,FALSE,0
"pro","stp",2,"107321","pro_stp_run2_107321","PURPLE","incon","mi","white",3600,171256,106944,8,"white","white","white","white","1",580.5,"whitePURPLE",64.312,171836.5,644.812,1,28.42,231.213,434.02,202.828,405.635,608.428,TRUE,FALSE,FALSE,0
"pro","stp",2,"107321","pro_stp_run2_107321","WHITE","congr","mi","white",2400,177256,106944,9,"white","white","white","white","1",530,"whiteWHITE",70.312,177786,600.312,1,28.42,231.213,434.02,202.828,405.635,608.428,TRUE,FALSE,FALSE,0
"pro","stp",2,"107321","pro_stp_run2_107321","WHITE","congr","mi","white",1200,182056,106944,10,"white","white","white","white","1",522,"whiteWHITE",75.112,182578,597.112,1,28.42,231.213,434.02,202.828,405.635,608.428,TRUE,FALSE,FALSE,0
"pro","stp",2,"107321","pro_stp_run2_107321","WHITE","incon","mi","purple",2400,185656,106944,11,"purple","purple","purple","purple","1",1163.5,"purpleWHITE",78.712,186819.5,1242.212,1,28.42,231.213,434.02,202.828,405.635,608.428,TRUE,FALSE,FALSE,0
"pro","stp",2,"107321","pro_stp_run2_107321","BLUE","incon","mi","purple",2400,190456,106944,12,"purple","purple","purple","purple","1",583,"purpleBLUE",83.512,191039,666.512,1,28.42,231.213,434.02,202.828,405.635,608.428,TRUE,FALSE,FALSE,0
"pro","stp",2,"107321","pro_stp_run2_107321","RED","congr","mi","red",3600,195255,106944,13,"red","red","red","red","1",446.5,"redRED",88.311,195701.5,534.811,1,28.42,231.213,434.02,202.828,405.635,608.428,TRUE,FALSE,FALSE,0
"pro","stp",2,"107321","pro_stp_run2_107321","RED","incon","mi","purple",3600,201255,106944,14,"purple","purple","purple","purple","1",600.5,"purpleRED",94.311,201855.5,694.811,1,28.42,231.213,434.02,202.828,405.635,608.428,TRUE,FALSE,FALSE,0
"pro","stp",2,"107321","pro_stp_run2_107321","GREEN","incon","pc50","black",1200,207255,106944,15,"black","black","black","black","1",709,"blackGREEN",100.311,207964,809.311,1,28.42,231.213,434.02,202.828,405.635,608.428,TRUE,FALSE,FALSE,0
"pro","stp",2,"107321","pro_stp_run2_107321","PINK","incon","pc50","yellow",1200,210855,106944,16,"yellow","yellow","yellow","yellow","1",682,"yellowPINK",103.911,211537,785.911,1,28.42,231.213,434.02,202.828,405.635,608.428,TRUE,FALSE,FALSE,0
"pro","stp",2,"107321","pro_stp_run2_107321","PINK","congr","pc50","pink",3600,214455,106944,17,"pink","pink","pink","pink","1",559,"pinkPINK",107.511,215014,666.511,1,28.42,231.213,434.02,202.828,405.635,608.428,TRUE,FALSE,FALSE,0
"pro","stp",2,"107321","pro_stp_run2_107321","BLUE","incon","mi","red",2400,220455,106944,18,"red","red","red","red","1",685.5,"redBLUE",113.511,221140.5,799.011,1,28.42,231.213,434.02,202.828,405.635,608.428,TRUE,FALSE,FALSE,0
"pro","stp",2,"107321","pro_stp_run2_107321","PURPLE","incon","mi","red",3600,225254,106944,19,"red","red","red","red","1",578,"redPURPLE",118.31,225832,696.31,1,28.42,231.213,434.02,202.828,405.635,608.428,TRUE,FALSE,FALSE,0
"pro","stp",2,"107321","pro_stp_run2_107321","BLUE","incon","mi","red",1200,231254,106944,20,"red","red","red","red","1",670.5,"redBLUE",124.31,231924.5,794.81,1,28.42,231.213,434.02,202.828,405.635,608.428,TRUE,FALSE,FALSE,0
"pro","stp",2,"107321","pro_stp_run2_107321","RED","incon","mi","white",2400,234854,106944,21,"white","white","white","white","1",676.5,"whiteRED",127.91,235530.5,804.41,1,28.42,231.213,434.02,202.828,405.635,608.428,TRUE,FALSE,FALSE,0
"pro","stp",2,"107321","pro_stp_run2_107321","GREEN","congr","pc50","green",2400,239654,106944,22,"green","green","green","green","1",545.5,"greenGREEN",132.71,240199.5,678.21,1,28.42,231.213,434.02,202.828,405.635,608.428,TRUE,FALSE,FALSE,0
"pro","stp",2,"107321","pro_stp_run2_107321","YELLOW","incon","pc50","green",1200,244454,106944,23,"green","green","green","green","1",576,"greenYELLOW",137.51,245030,713.51,1,28.42,231.213,434.02,202.828,405.635,608.428,TRUE,FALSE,FALSE,0
"pro","stp",2,"107321","pro_stp_run2_107321","PURPLE","incon","mi","blue",2400,248054,106944,24,"blue","blue","blue","blue","1",669,"bluePURPLE",141.11,248723,810.11,1,28.42,231.213,434.02,202.828,405.635,608.428,TRUE,FALSE,FALSE,0
"pro","stp",2,"107321","pro_stp_run2_107321","BLACK","congr","pc50","black",2400,252854,106944,25,"black","black","black","black","1",507.5,"blackBLACK",145.91,253361.5,653.41,1,28.42,231.213,434.02,202.828,405.635,608.428,TRUE,FALSE,FALSE,0
"pro","stp",2,"107321","pro_stp_run2_107321","RED","congr","mi","red",3600,257653,106944,26,"red","red","red","red","1",597.5,"redRED",150.709,258250.5,748.209,1,28.42,231.213,434.02,202.828,405.635,608.428,TRUE,FALSE,FALSE,0
"pro","stp",2,"107321","pro_stp_run2_107321","YELLOW","congr","pc50","yellow",3600,263653,106944,27,"yellow","yellow","yellow","yellow","1",791.5,"yellowYELLOW",156.709,264444.5,948.209,1,28.42,231.213,434.02,202.828,405.635,608.428,TRUE,FALSE,FALSE,0
"pro","stp",2,"107321","pro_stp_run2_107321","BLUE","incon","mi","purple",3600,269653,106944,28,"purple","purple","purple","purple","1",799,"purpleBLUE",162.709,270452,961.709,1,28.42,231.213,434.02,202.828,405.635,608.428,TRUE,FALSE,FALSE,0
"pro","stp",2,"107321","pro_stp_run2_107321","BLACK","congr","pc50","black",2400,275653,106944,29,"black","black","black","black","1",710,"blackBLACK",168.709,276363,878.709,1,28.42,231.213,434.02,202.828,405.635,608.428,TRUE,FALSE,FALSE,0
"pro","stp",2,"107321","pro_stp_run2_107321","WHITE","incon","mi","blue",2400,280453,106944,30,"blue","blue","blue","blue","1",705,"blueWHITE",173.509,281158,878.509,1,28.42,231.213,434.02,202.828,405.635,608.428,TRUE,FALSE,FALSE,0
"pro","stp",2,"107321","pro_stp_run2_107321","PINK","congr","pc50","pink",1200,285252,106944,31,"pink","pink","pink","pink","1",478,"pinkPINK",178.308,285730,656.308,1,28.42,231.213,434.02,202.828,405.635,608.428,TRUE,FALSE,FALSE,0
"pro","stp",2,"107321","pro_stp_run2_107321","BLACK","incon","pc50","yellow",3600,288852,106944,32,"yellow","yellow","yellow","yellow","1",605.5,"yellowBLACK",181.908,289457.5,787.408,1,28.42,231.213,434.02,202.828,405.635,608.428,TRUE,FALSE,FALSE,0
"pro","stp",2,"107321","pro_stp_run2_107321","RED","incon","mi","blue",1200,294852,106944,33,"blue","blue","blue","blue","1",638,"blueRED",187.908,295490,825.908,1,28.42,231.213,434.02,202.828,405.635,608.428,TRUE,FALSE,FALSE,0
"pro","stp",2,"107321","pro_stp_run2_107321","WHITE","incon","mi","blue",2400,298452,106944,34,"blue","blue","blue","blue","1",585.5,"blueWHITE",191.508,299037.5,777.008,1,28.42,231.213,434.02,202.828,405.635,608.428,TRUE,FALSE,FALSE,0
"pro","stp",2,"107321","pro_stp_run2_107321","BLACK","incon","pc50","pink",1200,303252,106944,35,"pink","pink","pink","pink","1",716.5,"pinkBLACK",196.308,303968.5,912.808,1,28.42,231.213,434.02,202.828,405.635,608.428,TRUE,FALSE,FALSE,0
"pro","stp",2,"107321","pro_stp_run2_107321","PURPLE","congr","mi","purple",1200,306852,106944,36,"purple","purple","purple","purple","1",565,"purplePURPLE",199.908,307417,764.908,1,28.42,231.213,434.02,202.828,405.635,608.428,TRUE,FALSE,FALSE,0
"pro","stp",2,"107321","pro_stp_run2_107321","PURPLE","congr","mi","purple",1200,340451,106944,37,"purple","purple","purple","purple","1",570,"purplePURPLE",233.507,341021,803.507,1,28.42,231.213,434.02,202.828,405.635,608.428,TRUE,FALSE,FALSE,0
"pro","stp",2,"107321","pro_stp_run2_107321","BLUE","incon","mi","purple",1200,344051,106944,38,"purple","purple","purple","purple","1",549,"purpleBLUE",237.107,344600,786.107,1,28.42,231.213,434.02,202.828,405.635,608.428,TRUE,FALSE,FALSE,0
"pro","stp",2,"107321","pro_stp_run2_107321","BLUE","incon","mi","red",1200,347650,106944,39,"red","red","red","red","1",1171,"redBLUE",240.706,348821,1411.706,1,28.42,231.213,434.02,202.828,405.635,608.428,TRUE,FALSE,FALSE,0
"pro","stp",2,"107321","pro_stp_run2_107321","YELLOW","incon","pc50","green",3600,351264,106944,40,"green","green","green","green","1",681,"greenYELLOW",244.32,351945,925.32,1,28.42,231.213,434.02,202.828,405.635,608.428,TRUE,FALSE,FALSE,0
"pro","stp",2,"107321","pro_stp_run2_107321","PINK","incon","pc50","green",2400,357263,106944,41,"green","green","green","green","1",573.5,"greenPINK",250.319,357836.5,823.819,1,28.42,231.213,434.02,202.828,405.635,608.428,TRUE,FALSE,FALSE,0
"pro","stp",2,"107321","pro_stp_run2_107321","BLACK","incon","pc50","yellow",3600,362063,106944,42,"yellow","yellow","yellow","yellow","1",731.5,"yellowBLACK",255.119,362794.5,986.619,1,28.42,231.213,434.02,202.828,405.635,608.428,TRUE,FALSE,FALSE,0
"pro","stp",2,"107321","pro_stp_run2_107321","RED","incon","mi","blue",1200,368063,106944,43,"blue","blue","blue","blue","1",776.5,"blueRED",261.119,368839.5,1037.619,1,28.42,231.213,434.02,202.828,405.635,608.428,TRUE,FALSE,FALSE,0
"pro","stp",2,"107321","pro_stp_run2_107321","PURPLE","incon","mi","white",2400,371663,106944,44,"white","white","white","white","1",657,"whitePURPLE",264.719,372320,921.719,1,28.42,231.213,434.02,202.828,405.635,608.428,TRUE,FALSE,FALSE,0
"pro","stp",2,"107321","pro_stp_run2_107321","BLUE","incon","mi","red",2400,376463,106944,45,"red","red","red","red","1",NA,"redBLUE",269.519,NA,NA,1,28.42,231.213,434.02,202.828,405.635,608.428,TRUE,NA,FALSE,0
"pro","stp",2,"107321","pro_stp_run2_107321","RED","incon","mi","white",3600,381263,106944,46,"white","white","white","white","1",670.5,"whiteRED",274.319,381933.5,944.819,1,28.42,231.213,434.02,202.828,405.635,608.428,TRUE,FALSE,FALSE,0
"pro","stp",2,"107321","pro_stp_run2_107321","YELLOW","congr","pc50","yellow",2400,387263,106944,47,"yellow","yellow","yellow","yellow","1",592,"yellowYELLOW",280.319,387855,872.319,1,28.42,231.213,434.02,202.828,405.635,608.428,TRUE,FALSE,FALSE,0
"pro","stp",2,"107321","pro_stp_run2_107321","WHITE","congr","mi","white",3600,392062,106944,48,"white","white","white","white","1",599.5,"whiteWHITE",285.118,392661.5,884.618,1,28.42,231.213,434.02,202.828,405.635,608.428,TRUE,FALSE,FALSE,0
"pro","stp",2,"107321","pro_stp_run2_107321","WHITE","incon","mi","blue",3600,398062,106944,49,"blue","blue","blue","blue","1",710,"blueWHITE",291.118,398772,1001.118,1,28.42,231.213,434.02,202.828,405.635,608.428,TRUE,FALSE,FALSE,0
"pro","stp",2,"107321","pro_stp_run2_107321","PINK","incon","pc50","yellow",3600,404062,106944,50,"yellow","yellow","yellow","yellow","1",609.5,"yellowPINK",297.118,404671.5,906.618,1,28.42,231.213,434.02,202.828,405.635,608.428,TRUE,FALSE,FALSE,0
"pro","stp",2,"107321","pro_stp_run2_107321","PURPLE","incon","mi","red",2400,410062,106944,51,"red","red","red","red","1",704,"redPURPLE",303.118,410766,1007.118,1,28.42,231.213,434.02,202.828,405.635,608.428,TRUE,FALSE,FALSE,0
"pro","stp",2,"107321","pro_stp_run2_107321","GREEN","congr","pc50","green",1200,414862,106944,52,"green","green","green","green","1",666,"greenGREEN",307.918,415528,973.918,1,28.42,231.213,434.02,202.828,405.635,608.428,TRUE,FALSE,FALSE,0
"pro","stp",2,"107321","pro_stp_run2_107321","RED","incon","mi","white",1200,418462,106944,53,"white","white","white","white","1",560,"whiteRED",311.518,419022,871.518,1,28.42,231.213,434.02,202.828,405.635,608.428,TRUE,FALSE,FALSE,0
"pro","stp",2,"107321","pro_stp_run2_107321","BLUE","incon","mi","white",2400,422061,106944,54,"white","white","white","white","1",1006.5,"whiteBLUE",315.117,423067.5,1321.617,1,28.42,231.213,434.02,202.828,405.635,608.428,TRUE,FALSE,FALSE,0
"pro","stp",2,"107321","pro_stp_run2_107321","WHITE","incon","mi","purple",3600,426861,106944,55,"purple","purple","purple","purple","1",670,"purpleWHITE",319.917,427531,989.917,1,28.42,231.213,434.02,202.828,405.635,608.428,TRUE,FALSE,FALSE,0
"pro","stp",2,"107321","pro_stp_run2_107321","PURPLE","incon","mi","blue",2400,432861,106944,56,"blue","blue","blue","blue","1",752.5,"bluePURPLE",325.917,433613.5,1078.417,1,28.42,231.213,434.02,202.828,405.635,608.428,TRUE,FALSE,FALSE,0
"pro","stp",2,"107321","pro_stp_run2_107321","BLUE","congr","mi","blue",1200,437661,106944,57,"blue","blue","blue","blue","1",631.5,"blueBLUE",330.717,438292.5,962.217,1,28.42,231.213,434.02,202.828,405.635,608.428,TRUE,FALSE,FALSE,0
"pro","stp",2,"107321","pro_stp_run2_107321","GREEN","incon","pc50","black",1200,441261,106944,58,"black","black","black","black","1",733.5,"blackGREEN",334.317,441994.5,1067.817,1,28.42,231.213,434.02,202.828,405.635,608.428,TRUE,FALSE,FALSE,0
"pro","stp",2,"107321","pro_stp_run2_107321","PINK","congr","pc50","pink",3600,444861,106944,59,"pink","pink","pink","pink","1",469.5,"pinkPINK",337.917,445330.5,807.417,1,28.42,231.213,434.02,202.828,405.635,608.428,TRUE,FALSE,FALSE,0
"pro","stp",2,"107321","pro_stp_run2_107321","BLUE","incon","mi","purple",2400,450860,106944,60,"purple","purple","purple","purple","1",859,"purpleBLUE",343.916,451719,1202.916,1,28.42,231.213,434.02,202.828,405.635,608.428,TRUE,FALSE,FALSE,0
"pro","stp",2,"107321","pro_stp_run2_107321","RED","congr","mi","red",3600,455660,106944,61,"red","red","red","red","1",575,"redRED",348.716,456235,923.716,1,28.42,231.213,434.02,202.828,405.635,608.428,TRUE,FALSE,FALSE,0
"pro","stp",2,"107321","pro_stp_run2_107321","BLACK","incon","pc50","pink",1200,461660,106944,62,"pink","pink","pink","pink","1",737,"pinkBLACK",354.716,462397,1091.716,1,28.42,231.213,434.02,202.828,405.635,608.428,TRUE,FALSE,FALSE,0
"pro","stp",2,"107321","pro_stp_run2_107321","BLACK","congr","pc50","black",1200,465260,106944,63,"black","black","black","black","1",614,"blackBLACK",358.316,465874,972.316,1,28.42,231.213,434.02,202.828,405.635,608.428,TRUE,FALSE,FALSE,0
"pro","stp",2,"107321","pro_stp_run2_107321","WHITE","incon","mi","red",3600,468860,106944,64,"red","red","red","red","1",660.5,"redWHITE",361.916,469520.5,1022.416,1,28.42,231.213,434.02,202.828,405.635,608.428,TRUE,FALSE,FALSE,0
"pro","stp",2,"107321","pro_stp_run2_107321","WHITE","congr","mi","white",3600,474860,106944,65,"white","white","white","white","1",478.5,"whiteWHITE",367.916,475338.5,846.416,1,28.42,231.213,434.02,202.828,405.635,608.428,TRUE,FALSE,FALSE,0
"pro","stp",2,"107321","pro_stp_run2_107321","PINK","congr","pc50","pink",3600,480860,106944,66,"pink","pink","pink","pink","1",505.5,"pinkPINK",373.916,481365.5,879.416,1,28.42,231.213,434.02,202.828,405.635,608.428,TRUE,FALSE,FALSE,0
"pro","stp",2,"107321","pro_stp_run2_107321","BLACK","congr","pc50","black",2400,486859,106944,67,"black","black","black","black","1",584,"blackBLACK",379.915,487443,963.915,1,28.42,231.213,434.02,202.828,405.635,608.428,TRUE,FALSE,FALSE,0
"pro","stp",2,"107321","pro_stp_run2_107321","PURPLE","incon","mi","white",1200,491659,106944,68,"white","white","white","white","1",630,"whitePURPLE",384.715,492289,1014.715,1,28.42,231.213,434.02,202.828,405.635,608.428,TRUE,FALSE,FALSE,0
"pro","stp",2,"107321","pro_stp_run2_107321","RED","incon","mi","purple",2400,495259,106944,69,"purple","purple","purple","purple","1",671,"purpleRED",388.315,495930,1059.315,1,28.42,231.213,434.02,202.828,405.635,608.428,TRUE,FALSE,FALSE,0
"pro","stp",2,"107321","pro_stp_run2_107321","RED","congr","mi","red",2400,500059,106944,70,"red","red","red","red","1",645.5,"redRED",393.115,500704.5,1038.615,1,28.42,231.213,434.02,202.828,405.635,608.428,TRUE,FALSE,FALSE,0
"pro","stp",2,"107321","pro_stp_run2_107321","WHITE","incon","mi","blue",2400,504859,106944,71,"blue","blue","blue","blue","1",723.5,"blueWHITE",397.915,505582.5,1121.415,1,28.42,231.213,434.02,202.828,405.635,608.428,TRUE,FALSE,FALSE,0
"pro","stp",2,"107321","pro_stp_run2_107321","PURPLE","incon","mi","red",1200,509659,106944,72,"red","red","red","red","1",814.5,"redPURPLE",402.715,510473.5,1217.215,1,28.42,231.213,434.02,202.828,405.635,608.428,TRUE,FALSE,FALSE,0
"pro","stp",2,"107321","pro_stp_run2_107321","PINK","congr","pc50","pink",3600,543258,106944,73,"pink","pink","pink","pink","1",486.5,"pinkPINK",436.314,543744.5,922.814,1,28.42,231.213,434.02,202.828,405.635,608.428,TRUE,FALSE,FALSE,0
"pro","stp",2,"107321","pro_stp_run2_107321","RED","congr","mi","red",2400,549257,106944,74,"red","red","red","red","1",468.5,"redRED",442.313,549725.5,910.813,1,28.42,231.213,434.02,202.828,405.635,608.428,TRUE,FALSE,FALSE,0
"pro","stp",2,"107321","pro_stp_run2_107321","BLACK","incon","pc50","yellow",1200,554057,106944,75,"yellow","yellow","yellow","yellow","1",623,"yellowBLACK",447.113,554680,1070.113,1,28.42,231.213,434.02,202.828,405.635,608.428,TRUE,FALSE,FALSE,0
"pro","stp",2,"107321","pro_stp_run2_107321","WHITE","incon","mi","blue",1200,557657,106944,76,"blue","blue","blue","blue","1",627,"blueWHITE",450.713,558284,1077.713,1,28.42,231.213,434.02,202.828,405.635,608.428,TRUE,FALSE,FALSE,0
"pro","stp",2,"107321","pro_stp_run2_107321","RED","incon","mi","blue",2400,561257,106944,77,"blue","blue","blue","blue","1",657.5,"blueRED",454.313,561914.5,1111.813,1,28.42,231.213,434.02,202.828,405.635,608.428,TRUE,FALSE,FALSE,0
"pro","stp",2,"107321","pro_stp_run2_107321","BLUE","incon","mi","red",2400,566057,106944,78,"red","red","red","red","1",648,"redBLUE",459.113,566705,1107.113,1,28.42,231.213,434.02,202.828,405.635,608.428,TRUE,FALSE,FALSE,0
"pro","stp",2,"107321","pro_stp_run2_107321","GREEN","congr","pc50","green",3600,570857,106944,79,"green - unsure","green","green","green","1",459.5,"greenGREEN",463.913,571316.5,923.413,1,28.42,231.213,434.02,202.828,405.635,608.428,TRUE,FALSE,FALSE,0
"pro","stp",2,"107321","pro_stp_run2_107321","BLUE","incon","mi","red",1200,576856,106944,80,"red","red","red","red","1",690,"redBLUE",469.912,577546,1159.912,1,28.42,231.213,434.02,202.828,405.635,608.428,TRUE,FALSE,FALSE,0
"pro","stp",2,"107321","pro_stp_run2_107321","RED","incon","mi","white",3600,580456,106944,81,"white","white","white","white","1",652.5,"whiteRED",473.512,581108.5,1126.012,1,28.42,231.213,434.02,202.828,405.635,608.428,TRUE,FALSE,FALSE,0
"pro","stp",2,"107321","pro_stp_run2_107321","PURPLE","incon","mi","white",1200,586456,106944,82,"white","white","white","white","1",595,"whitePURPLE",479.512,587051,1074.512,1,28.42,231.213,434.02,202.828,405.635,608.428,TRUE,FALSE,FALSE,0
"pro","stp",2,"107321","pro_stp_run2_107321","BLUE","incon","mi","white",2400,590056,106944,83,"white","white","white","white","1",578,"whiteBLUE",483.112,590634,1061.112,1,28.42,231.213,434.02,202.828,405.635,608.428,TRUE,FALSE,FALSE,0
"pro","stp",2,"107321","pro_stp_run2_107321","RED","congr","mi","red",3600,594856,106944,84,"red","red","red","red","1",NA,"redRED",487.912,NA,NA,1,28.42,231.213,434.02,202.828,405.635,608.428,TRUE,NA,FALSE,0
"pro","stp",2,"107321","pro_stp_run2_107321","BLUE","congr","mi","blue",1200,600856,106944,85,"blue","blue","blue","blue","1",502.5,"blueBLUE",493.912,601358.5,996.412,1,28.42,231.213,434.02,202.828,405.635,608.428,TRUE,FALSE,FALSE,0
"pro","stp",2,"107321","pro_stp_run2_107321","PURPLE","incon","mi","red",2400,604456,106944,86,"red","red","red","red","1",651,"redPURPLE",497.512,605107,1148.512,1,28.42,231.213,434.02,202.828,405.635,608.428,TRUE,FALSE,FALSE,0
"pro","stp",2,"107321","pro_stp_run2_107321","YELLOW","incon","pc50","green",1200,609255,106944,87,"green","green","green","green","1",693,"greenYELLOW",502.311,609948,1195.311,1,28.42,231.213,434.02,202.828,405.635,608.428,TRUE,FALSE,FALSE,0
"pro","stp",2,"107321","pro_stp_run2_107321","PINK","incon","pc50","yellow",2400,612855,106944,88,"yellow","yellow","yellow","yellow","1",574.5,"yellowPINK",505.911,613429.5,1080.411,1,28.42,231.213,434.02,202.828,405.635,608.428,TRUE,FALSE,FALSE,0
"pro","stp",2,"107321","pro_stp_run2_107321","BLUE","incon","mi","purple",1200,617655,106944,89,"purple","purple","purple","purple","1",694.5,"purpleBLUE",510.711,618349.5,1205.211,1,28.42,231.213,434.02,202.828,405.635,608.428,TRUE,FALSE,FALSE,0
"pro","stp",2,"107321","pro_stp_run2_107321","PINK","incon","pc50","green",3600,621255,106944,90,"green","green","green","green","1",642,"greenPINK",514.311,621897,1156.311,1,28.42,231.213,434.02,202.828,405.635,608.428,TRUE,FALSE,FALSE,0
"pro","stp",2,"107321","pro_stp_run2_107321","WHITE","incon","mi","red",3600,627255,106944,91,"red","red","red","red","1",792.5,"redWHITE",520.311,628047.5,1312.811,1,28.42,231.213,434.02,202.828,405.635,608.428,TRUE,FALSE,FALSE,0
"pro","stp",2,"107321","pro_stp_run2_107321","RED","incon","mi","white",2400,633255,106944,92,"white","white","white","white","1",546,"whiteRED",526.311,633801,1072.311,1,28.42,231.213,434.02,202.828,405.635,608.428,TRUE,FALSE,FALSE,0
"pro","stp",2,"107321","pro_stp_run2_107321","BLUE","incon","mi","purple",1200,638054,106944,93,"purple","purple","purple","purple","1",741.5,"purpleBLUE",531.11,638795.5,1272.61,1,28.42,231.213,434.02,202.828,405.635,608.428,TRUE,FALSE,FALSE,0
"pro","stp",2,"107321","pro_stp_run2_107321","BLACK","congr","pc50","black",2400,641654,106944,94,"black","black","black","black","1",499.5,"blackBLACK",534.71,642153.5,1034.21,1,28.42,231.213,434.02,202.828,405.635,608.428,TRUE,FALSE,FALSE,0
"pro","stp",2,"107321","pro_stp_run2_107321","WHITE","congr","mi","white",3600,646454,106944,95,"white","white","white","white","1",664.5,"whiteWHITE",539.51,647118.5,1204.01,1,28.42,231.213,434.02,202.828,405.635,608.428,TRUE,FALSE,FALSE,0
"pro","stp",2,"107321","pro_stp_run2_107321","RED","incon","mi","purple",3600,652454,106944,96,"purple","purple","purple","purple","1",560.5,"purpleRED",545.51,653014.5,1106.01,1,28.42,231.213,434.02,202.828,405.635,608.428,TRUE,FALSE,FALSE,0
"pro","stp",2,"107321","pro_stp_run2_107321","BLACK","congr","pc50","black",2400,658454,106944,97,"black","black","black","black","1",562.5,"blackBLACK",551.51,659016.5,1114.01,1,28.42,231.213,434.02,202.828,405.635,608.428,TRUE,FALSE,FALSE,0
"pro","stp",2,"107321","pro_stp_run2_107321","YELLOW","congr","pc50","yellow",2400,663254,106944,98,"yellow","yellow","yellow","yellow","1",566.5,"yellowYELLOW",556.31,663820.5,1122.81,1,28.42,231.213,434.02,202.828,405.635,608.428,TRUE,FALSE,FALSE,0
"pro","stp",2,"107321","pro_stp_run2_107321","WHITE","incon","mi","purple",2400,668054,106944,99,"purple","purple","purple","purple","1",634,"purpleWHITE",561.11,668688,1195.11,1,28.42,231.213,434.02,202.828,405.635,608.428,TRUE,FALSE,FALSE,0
"pro","stp",2,"107321","pro_stp_run2_107321","WHITE","incon","mi","blue",1200,672853,106944,100,"blue","blue","blue","blue","1",666.5,"blueWHITE",565.909,673519.5,1232.409,1,28.42,231.213,434.02,202.828,405.635,608.428,TRUE,FALSE,FALSE,0
"pro","stp",2,"107321","pro_stp_run2_107321","PINK","congr","pc50","pink",2400,676453,106944,101,"pink","pink","pink","pink","1",499.5,"pinkPINK",569.509,676952.5,1069.009,1,28.42,231.213,434.02,202.828,405.635,608.428,TRUE,FALSE,FALSE,0
"pro","stp",2,"107321","pro_stp_run2_107321","GREEN","incon","pc50","black",1200,681253,106944,102,"black","black","black","black","1",644.5,"blackGREEN",574.309,681897.5,1218.809,1,28.42,231.213,434.02,202.828,405.635,608.428,TRUE,FALSE,FALSE,0
"pro","stp",2,"107321","pro_stp_run2_107321","PURPLE","congr","mi","purple",3600,684853,106944,103,"purple","purple","purple","purple","1",607,"purplePURPLE",577.909,685460,1184.909,1,28.42,231.213,434.02,202.828,405.635,608.428,TRUE,FALSE,FALSE,0
"pro","stp",2,"107321","pro_stp_run2_107321","PURPLE","incon","mi","red",3600,690853,106944,104,"red","red","red","red","1",603.5,"redPURPLE",583.909,691456.5,1187.409,1,28.42,231.213,434.02,202.828,405.635,608.428,TRUE,FALSE,FALSE,0
"pro","stp",2,"107321","pro_stp_run2_107321","WHITE","congr","mi","white",1200,696853,106944,105,"white","white","white","white","1",577,"whiteWHITE",589.909,697430,1166.909,1,28.42,231.213,434.02,202.828,405.635,608.428,TRUE,FALSE,FALSE,0
"pro","stp",2,"107321","pro_stp_run2_107321","PURPLE","incon","mi","white",1200,700452,106944,106,"white","white","white","white","1",694,"whitePURPLE",593.508,701146,1287.508,1,28.42,231.213,434.02,202.828,405.635,608.428,TRUE,FALSE,FALSE,0
"pro","stp",2,"107321","pro_stp_run2_107321","PURPLE","incon","mi","blue",3600,704052,106944,107,"blue","blue","blue","blue","1",692,"bluePURPLE",597.108,704744,1289.108,1,28.42,231.213,434.02,202.828,405.635,608.428,TRUE,FALSE,FALSE,0
"pro","stp",2,"107321","pro_stp_run2_107321","BLACK","incon","pc50","pink",3600,710052,106944,108,"pink","pink","pink","pink","1",622,"pinkBLACK",603.108,710674,1225.108,1,28.42,231.213,434.02,202.828,405.635,608.428,TRUE,FALSE,FALSE,0
"pro","stp",1,"115825","pro_stp_run1_115825","WHITE","incon","mi","purple",3600,121582,90869,1,"purple- muffled","purple","purple","purple","1",1040.5,"purpleWHITE",30.713,122622.5,1071.213,1,28.413,231.214,434.015,202.819,405.62,608.421,FALSE,FALSE,FALSE,0
"pro","stp",1,"115825","pro_stp_run1_115825","BLACK","congr","pc50","black",1200,127581,90869,2,"black","black","black","black","1",867,"blackBLACK",36.712,128448,903.712,1,28.413,231.214,434.015,202.819,405.62,608.421,FALSE,FALSE,FALSE,0
"pro","stp",1,"115825","pro_stp_run1_115825","GREEN","incon","pc50","yellow",2400,131180,90869,3,"yellow","yellow","yellow","yellow","1",1099.5,"yellowGREEN",40.311,132279.5,1139.811,1,28.413,231.214,434.015,202.819,405.62,608.421,FALSE,FALSE,FALSE,0
"pro","stp",1,"115825","pro_stp_run1_115825","PINK","incon","pc50","black",1200,135979,90869,4,"black","black","black","black","1",1264.5,"blackPINK",45.11,137243.5,1309.61,1,28.413,231.214,434.015,202.819,405.62,608.421,FALSE,FALSE,FALSE,0
"pro","stp",1,"115825","pro_stp_run1_115825","PINK","congr","pc50","pink",1200,139579,90869,5,"pink","pink","pink","pink","1",1132.5,"pinkPINK",48.71,140711.5,1181.21,1,28.413,231.214,434.015,202.819,405.62,608.421,FALSE,FALSE,FALSE,0
"pro","stp",1,"115825","pro_stp_run1_115825","BLUE","incon","mi","white",2400,143178,90869,6,"white","white","white","white","1",890.5,"whiteBLUE",52.309,144068.5,942.809,1,28.413,231.214,434.015,202.819,405.62,608.421,FALSE,FALSE,FALSE,0
"pro","stp",1,"115825","pro_stp_run1_115825","BLACK","incon","pc50","green",1200,147978,90869,7,"green","green","green","green","1",941,"greenBLACK",57.109,148919,998.109,1,28.413,231.214,434.015,202.819,405.62,608.421,FALSE,FALSE,FALSE,0
"pro","stp",1,"115825","pro_stp_run1_115825","BLUE","incon","mi","red",3600,151577,90869,8,"red","red","red","red","1",971.5,"redBLUE",60.708,152548.5,1032.208,1,28.413,231.214,434.015,202.819,405.62,608.421,FALSE,FALSE,FALSE,0
"pro","stp",1,"115825","pro_stp_run1_115825","WHITE","incon","mi","red",2400,157576,90869,9,"red","red","red","red","1",1098,"redWHITE",66.707,158674,1164.707,1,28.413,231.214,434.015,202.819,405.62,608.421,FALSE,FALSE,FALSE,0
"pro","stp",1,"115825","pro_stp_run1_115825","PURPLE","incon","mi","white",3600,162375,90869,10,"white","white","white","white","1",1102,"whitePURPLE",71.506,163477,1173.506,1,28.413,231.214,434.015,202.819,405.62,608.421,FALSE,FALSE,FALSE,0
"pro","stp",1,"115825","pro_stp_run1_115825","YELLOW","incon","pc50","pink",3600,168374,90869,11,"pink","pink","pink","pink","1",1103,"pinkYELLOW",77.505,169477,1180.505,1,28.413,231.214,434.015,202.819,405.62,608.421,FALSE,FALSE,FALSE,0
"pro","stp",1,"115825","pro_stp_run1_115825","YELLOW","incon","pc50","black",2400,174390,90869,12,"black","black","black","black","1",937.5,"blackYELLOW",83.521,175327.5,1021.021,1,28.413,231.214,434.015,202.819,405.62,608.421,FALSE,FALSE,FALSE,0
"pro","stp",1,"115825","pro_stp_run1_115825","YELLOW","congr","pc50","yellow",1200,179189,90869,13,"yellow","yellow","yellow","yellow","1",937,"yellowYELLOW",88.32,180126,1025.32,1,28.413,231.214,434.015,202.819,405.62,608.421,FALSE,FALSE,FALSE,0
"pro","stp",1,"115825","pro_stp_run1_115825","RED","incon","mi","blue",1200,182789,90869,14,"blue","blue","blue","blue","1",1071,"blueRED",91.92,183860,1162.92,1,28.413,231.214,434.015,202.819,405.62,608.421,FALSE,FALSE,FALSE,0
"pro","stp",1,"115825","pro_stp_run1_115825","WHITE","incon","mi","blue",3600,186388,90869,15,"blue","blue","blue","blue","1",1099.5,"blueWHITE",95.519,187487.5,1195.019,1,28.413,231.214,434.015,202.819,405.62,608.421,FALSE,FALSE,FALSE,0
"pro","stp",1,"115825","pro_stp_run1_115825","PURPLE","incon","mi","red",2400,192387,90869,16,"red","red","red","red","1",1142,"redPURPLE",101.518,193529,1243.518,1,28.413,231.214,434.015,202.819,405.62,608.421,FALSE,FALSE,FALSE,0
"pro","stp",1,"115825","pro_stp_run1_115825","RED","incon","mi","white",1200,197186,90869,17,"white","white","white","white","1",934.5,"whiteRED",106.317,198120.5,1040.817,1,28.413,231.214,434.015,202.819,405.62,608.421,FALSE,FALSE,FALSE,0
"pro","stp",1,"115825","pro_stp_run1_115825","RED","incon","mi","purple",3600,200786,90869,18,"purple","purple","purple","purple","1",1061,"purpleRED",109.917,201847,1170.917,1,28.413,231.214,434.015,202.819,405.62,608.421,FALSE,FALSE,FALSE,0
"pro","stp",1,"115825","pro_stp_run1_115825","WHITE","incon","mi","purple",1200,206785,90869,19,"purple","purple","purple","purple","1",962.5,"purpleWHITE",115.916,207747.5,1078.416,1,28.413,231.214,434.015,202.819,405.62,608.421,FALSE,FALSE,FALSE,0
"pro","stp",1,"115825","pro_stp_run1_115825","GREEN","congr","pc50","green",3600,210384,90869,20,"green","green","green","green","1",807,"greenGREEN",119.515,211191,926.515,1,28.413,231.214,434.015,202.819,405.62,608.421,FALSE,FALSE,FALSE,0
"pro","stp",1,"115825","pro_stp_run1_115825","RED","congr","mi","red",2400,216383,90869,21,"red","red","red","red","1",921,"redRED",125.514,217304,1046.514,1,28.413,231.214,434.015,202.819,405.62,608.421,FALSE,FALSE,FALSE,0
"pro","stp",1,"115825","pro_stp_run1_115825","WHITE","congr","mi","white",2400,221183,90869,22,"white","white","white","white","1",849.5,"whiteWHITE",130.314,222032.5,979.814,1,28.413,231.214,434.015,202.819,405.62,608.421,FALSE,FALSE,FALSE,0
"pro","stp",1,"115825","pro_stp_run1_115825","BLUE","congr","mi","blue",3600,225982,90869,23,"blue","blue","blue","blue","1",851.5,"blueBLUE",135.113,226833.5,986.613,1,28.413,231.214,434.015,202.819,405.62,608.421,FALSE,FALSE,FALSE,0
"pro","stp",1,"115825","pro_stp_run1_115825","RED","incon","mi","purple",2400,231981,90869,24,"purple","purple","purple","purple","1",1279,"purpleRED",141.112,233260,1420.112,1,28.413,231.214,434.015,202.819,405.62,608.421,FALSE,FALSE,FALSE,0
"pro","stp",1,"115825","pro_stp_run1_115825","BLUE","incon","mi","white",1200,236780,90869,25,"white","white","white","white","1",928,"whiteBLUE",145.911,237708,1073.911,1,28.413,231.214,434.015,202.819,405.62,608.421,FALSE,FALSE,FALSE,0
"pro","stp",1,"115825","pro_stp_run1_115825","WHITE","incon","mi","red",3600,240380,90869,26,"red","red","red","red","1",887.5,"redWHITE",149.511,241267.5,1037.011,1,28.413,231.214,434.015,202.819,405.62,608.421,FALSE,FALSE,FALSE,0
"pro","stp",1,"115825","pro_stp_run1_115825","PURPLE","congr","mi","purple",1200,246379,90869,27,"purple","purple","purple","purple","1",1120.5,"purplePURPLE",155.51,247499.5,1276.01,1,28.413,231.214,434.015,202.819,405.62,608.421,FALSE,FALSE,FALSE,0
"pro","stp",1,"115825","pro_stp_run1_115825","YELLOW","congr","pc50","yellow",1200,249978,90869,28,"yellow","yellow","yellow","yellow","1",787,"yellowYELLOW",159.109,250765,946.109,1,28.413,231.214,434.015,202.819,405.62,608.421,FALSE,FALSE,FALSE,0
"pro","stp",1,"115825","pro_stp_run1_115825","PURPLE","incon","mi","blue",3600,253577,90869,29,"blue","blue","blue","blue","1",957.5,"bluePURPLE",162.708,254534.5,1120.208,1,28.413,231.214,434.015,202.819,405.62,608.421,FALSE,FALSE,FALSE,0
"pro","stp",1,"115825","pro_stp_run1_115825","GREEN","incon","pc50","pink",1200,259577,90869,30,"pink","pink","pink","pink","1",1132,"pinkGREEN",168.708,260709,1300.708,1,28.413,231.214,434.015,202.819,405.62,608.421,FALSE,FALSE,FALSE,0
"pro","stp",1,"115825","pro_stp_run1_115825","GREEN","congr","pc50","green",2400,263176,90869,31,"green","green","green","green","1",885.5,"greenGREEN",172.307,264061.5,1057.807,1,28.413,231.214,434.015,202.819,405.62,608.421,FALSE,FALSE,FALSE,0
"pro","stp",1,"115825","pro_stp_run1_115825","RED","incon","mi","blue",2400,267975,90869,32,"blue","blue","blue","blue","1",893.5,"blueRED",177.106,268868.5,1070.606,1,28.413,231.214,434.015,202.819,405.62,608.421,FALSE,FALSE,FALSE,0
"pro","stp",1,"115825","pro_stp_run1_115825","BLUE","congr","mi","blue",3600,272774,90869,33,"blue","blue","blue","blue","1",797.5,"blueBLUE",181.905,273571.5,979.405,1,28.413,231.214,434.015,202.819,405.62,608.421,FALSE,FALSE,FALSE,0
"pro","stp",1,"115825","pro_stp_run1_115825","BLUE","incon","mi","purple",3600,278790,90869,34,"purple","purple","purple","purple","1",842,"purpleBLUE",187.921,279632,1029.921,1,28.413,231.214,434.015,202.819,405.62,608.421,FALSE,FALSE,FALSE,0
"pro","stp",1,"115825","pro_stp_run1_115825","PURPLE","congr","mi","purple",2400,284789,90869,35,"purple","purple","purple","purple","1",761,"purplePURPLE",193.92,285550,954.92,1,28.413,231.214,434.015,202.819,405.62,608.421,FALSE,FALSE,FALSE,0
"pro","stp",1,"115825","pro_stp_run1_115825","PURPLE","incon","mi","blue",2400,289588,90869,36,"blue","blue","blue","blue","1",768.5,"bluePURPLE",198.719,290356.5,967.219,1,28.413,231.214,434.015,202.819,405.62,608.421,FALSE,FALSE,FALSE,0
"pro","stp",1,"115825","pro_stp_run1_115825","BLUE","incon","mi","purple",1200,324383,90869,37,"purple","purple","purple","purple","1",908.5,"purpleBLUE",233.514,325291.5,1142.014,1,28.413,231.214,434.015,202.819,405.62,608.421,FALSE,FALSE,FALSE,0
"pro","stp",1,"115825","pro_stp_run1_115825","RED","incon","mi","blue",3600,327982,90869,38,"blue","blue","blue","blue","1",1007,"blueRED",237.113,328989,1244.113,1,28.413,231.214,434.015,202.819,405.62,608.421,FALSE,FALSE,FALSE,0
"pro","stp",1,"115825","pro_stp_run1_115825","PURPLE","incon","mi","white",2400,333981,90869,39,"white","white","white","white","1",853,"whitePURPLE",243.112,334834,1096.112,1,28.413,231.214,434.015,202.819,405.62,608.421,FALSE,FALSE,FALSE,0
"pro","stp",1,"115825","pro_stp_run1_115825","PURPLE","incon","mi","blue",3600,338781,90869,40,"blue","blue","blue","blue","1",932.5,"bluePURPLE",247.912,339713.5,1180.412,1,28.413,231.214,434.015,202.819,405.62,608.421,FALSE,FALSE,FALSE,0
"pro","stp",1,"115825","pro_stp_run1_115825","GREEN","incon","pc50","yellow",1200,344780,90869,41,"yellow","yellow","yellow","yellow","1",941.5,"yellowGREEN",253.911,345721.5,1195.411,1,28.413,231.214,434.015,202.819,405.62,608.421,FALSE,FALSE,FALSE,0
"pro","stp",1,"115825","pro_stp_run1_115825","PURPLE","incon","mi","blue",2400,348379,90869,42,"blue","blue","blue","blue","1",1259.5,"bluePURPLE",257.51,349638.5,1517.01,1,28.413,231.214,434.015,202.819,405.62,608.421,FALSE,FALSE,FALSE,0
"pro","stp",1,"115825","pro_stp_run1_115825","RED","incon","mi","purple",3600,353178,90869,43,"purple","purple","purple","purple","1",963,"purpleRED",262.309,354141,1225.309,1,28.413,231.214,434.015,202.819,405.62,608.421,FALSE,FALSE,FALSE,0
"pro","stp",1,"115825","pro_stp_run1_115825","WHITE","incon","mi","blue",1200,359177,90869,44,"blue","blue","blue","blue","1",1101,"blueWHITE",268.308,360278,1369.308,1,28.413,231.214,434.015,202.819,405.62,608.421,FALSE,FALSE,FALSE,0
"pro","stp",1,"115825","pro_stp_run1_115825","PURPLE","congr","mi","purple",1200,362777,90869,45,"purple- clears throat after","purple","purple","purple","1",1025.5,"purplePURPLE",271.908,363802.5,1297.408,1,28.413,231.214,434.015,202.819,405.62,608.421,FALSE,FALSE,FALSE,0
"pro","stp",1,"115825","pro_stp_run1_115825","YELLOW","congr","pc50","yellow",2400,366376,90869,46,"yellow","yellow","yellow","yellow","1",947,"yellowYELLOW",275.507,367323,1222.507,1,28.413,231.214,434.015,202.819,405.62,608.421,FALSE,FALSE,FALSE,0
"pro","stp",1,"115825","pro_stp_run1_115825","GREEN","incon","pc50","pink",2400,371175,90869,47,"pink","pink","pink","pink","1",1037.5,"pinkGREEN",280.306,372212.5,1317.806,1,28.413,231.214,434.015,202.819,405.62,608.421,FALSE,FALSE,FALSE,0
"pro","stp",1,"115825","pro_stp_run1_115825","RED","incon","mi","purple",3600,375975,90869,48,"purple","purple","purple","purple","1",1086,"purpleRED",285.106,377061,1371.106,1,28.413,231.214,434.015,202.819,405.62,608.421,FALSE,FALSE,FALSE,0
"pro","stp",1,"115825","pro_stp_run1_115825","WHITE","incon","mi","purple",2400,381974,90869,49,"purple","purple","purple","purple","1",1330,"purpleWHITE",291.105,383304,1621.105,1,28.413,231.214,434.015,202.819,405.62,608.421,FALSE,FALSE,FALSE,0
"pro","stp",1,"115825","pro_stp_run1_115825","GREEN","congr","pc50","green",1200,386790,90869,50,"green","green","green","green","1",1195,"greenGREEN",295.921,387985,1490.921,1,28.413,231.214,434.015,202.819,405.62,608.421,FALSE,FALSE,FALSE,0
"pro","stp",1,"115825","pro_stp_run1_115825","YELLOW","incon","pc50","pink",1200,390389,90869,51,"pink","pink","pink","pink","1",1382.5,"pinkYELLOW",299.52,391771.5,1682.02,1,28.413,231.214,434.015,202.819,405.62,608.421,FALSE,FALSE,FALSE,0
"pro","stp",1,"115825","pro_stp_run1_115825","PURPLE","incon","mi","red",3600,393989,90869,52,"red","red","red","red","1",976.5,"redPURPLE",303.12,394965.5,1279.62,1,28.413,231.214,434.015,202.819,405.62,608.421,FALSE,FALSE,FALSE,0
"pro","stp",1,"115825","pro_stp_run1_115825","WHITE","incon","mi","purple",3600,399988,90869,53,"purple","purple","purple","purple","1",1185,"purpleWHITE",309.119,401173,1494.119,1,28.413,231.214,434.015,202.819,405.62,608.421,FALSE,FALSE,FALSE,0
"pro","stp",1,"115825","pro_stp_run1_115825","BLUE","incon","mi","white",2400,405987,90869,54,"white","white","white","white","1",1179,"whiteBLUE",315.118,407166,1494.118,1,28.413,231.214,434.015,202.819,405.62,608.421,FALSE,FALSE,FALSE,0
"pro","stp",1,"115825","pro_stp_run1_115825","BLACK","congr","pc50","black",3600,410786,90869,55,"black","black","black","black","1",1085.5,"blackBLACK",319.917,411871.5,1405.417,1,28.413,231.214,434.015,202.819,405.62,608.421,FALSE,FALSE,FALSE,0
"pro","stp",1,"115825","pro_stp_run1_115825","BLUE","congr","mi","blue",1200,416785,90869,56,"blue","blue","blue","blue","1",1064,"blueBLUE",325.916,417849,1389.916,1,28.413,231.214,434.015,202.819,405.62,608.421,FALSE,FALSE,FALSE,0
"pro","stp",1,"115825","pro_stp_run1_115825","BLUE","incon","mi","white",2400,420384,90869,57,"white","white","white","white","1",924.5,"whiteBLUE",329.515,421308.5,1254.015,1,28.413,231.214,434.015,202.819,405.62,608.421,FALSE,FALSE,FALSE,0
"pro","stp",1,"115825","pro_stp_run1_115825","RED","congr","mi","red",2400,425184,90869,58,"red","red","red","red","1",1009.5,"redRED",334.315,426193.5,1343.815,1,28.413,231.214,434.015,202.819,405.62,608.421,FALSE,FALSE,FALSE,0
"pro","stp",1,"115825","pro_stp_run1_115825","PURPLE","congr","mi","purple",3600,429983,90869,59,"purple","purple","purple","purple","1",949.5,"purplePURPLE",339.114,430932.5,1288.614,1,28.413,231.214,434.015,202.819,405.62,608.421,FALSE,FALSE,FALSE,0
"pro","stp",1,"115825","pro_stp_run1_115825","BLUE","incon","mi","red",1200,435982,90869,60,"red","red","red","red","1",1182,"redBLUE",345.113,437164,1527.113,1,28.413,231.214,434.015,202.819,405.62,608.421,FALSE,FALSE,FALSE,0
"pro","stp",1,"115825","pro_stp_run1_115825","BLUE","congr","mi","blue",3600,439581,90869,61,"blue","blue","blue","blue","1",920,"blueBLUE",348.712,440501,1268.712,1,28.413,231.214,434.015,202.819,405.62,608.421,FALSE,FALSE,FALSE,0
"pro","stp",1,"115825","pro_stp_run1_115825","BLACK","incon","pc50","green",2400,445580,90869,62,"green","green","green","green","1",1297.5,"greenBLACK",354.711,446877.5,1652.211,1,28.413,231.214,434.015,202.819,405.62,608.421,FALSE,FALSE,FALSE,0
"pro","stp",1,"115825","pro_stp_run1_115825","RED","incon","mi","white",3600,450380,90869,63,"white","white","white","white","1",1099,"whiteRED",359.511,451479,1458.511,1,28.413,231.214,434.015,202.819,405.62,608.421,FALSE,FALSE,FALSE,0
"pro","stp",1,"115825","pro_stp_run1_115825","RED","incon","mi","blue",2400,456379,90869,64,"no-answer","no answer","blue","","no.response",0,"blueRED",365.51,456957,943.51,0,28.413,231.214,434.015,202.819,405.62,608.421,FALSE,TRUE,FALSE,1
"pro","stp",1,"115825","pro_stp_run1_115825","PINK","congr","pc50","pink",3600,461178,90869,65,"pink","pink","pink","pink","1",735.5,"pinkPINK",370.309,461913.5,1105.809,1,28.413,231.214,434.015,202.819,405.62,608.421,FALSE,FALSE,FALSE,0
"pro","stp",1,"115825","pro_stp_run1_115825","WHITE","incon","mi","red",1200,467177,90869,66,"red","red","red","red","1",1108.5,"redWHITE",376.308,468285.5,1484.808,1,28.413,231.214,434.015,202.819,405.62,608.421,FALSE,FALSE,FALSE,0
"pro","stp",1,"115825","pro_stp_run1_115825","YELLOW","congr","pc50","yellow",1200,470776,90869,67,"yellow","yellow","yellow","yellow","1",1091,"yellowYELLOW",379.907,471867,1470.907,1,28.413,231.214,434.015,202.819,405.62,608.421,FALSE,FALSE,FALSE,0
"pro","stp",1,"115825","pro_stp_run1_115825","WHITE","congr","mi","white",1200,474376,90869,68,"white","white","white","white","1",861,"whiteWHITE",383.507,475237,1244.507,1,28.413,231.214,434.015,202.819,405.62,608.421,FALSE,FALSE,FALSE,0
"pro","stp",1,"115825","pro_stp_run1_115825","PINK","incon","pc50","black",2400,477975,90869,69,"black","black","black","black","1",893.5,"blackPINK",387.106,478868.5,1280.606,1,28.413,231.214,434.015,202.819,405.62,608.421,FALSE,FALSE,FALSE,0
"pro","stp",1,"115825","pro_stp_run1_115825","GREEN","congr","pc50","green",1200,482774,90869,70,"green","green","green","green","1",872.5,"greenGREEN",391.905,483646.5,1264.405,1,28.413,231.214,434.015,202.819,405.62,608.421,FALSE,FALSE,FALSE,0
"pro","stp",1,"115825","pro_stp_run1_115825","WHITE","incon","mi","red",3600,486374,90869,71,"red","red","red","red","1",1101,"redWHITE",395.505,487475,1496.505,1,28.413,231.214,434.015,202.819,405.62,608.421,FALSE,FALSE,FALSE,0
"pro","stp",1,"115825","pro_stp_run1_115825","YELLOW","incon","pc50","black",2400,492390,90869,72,"black","black","black","black","1",1054.5,"blackYELLOW",401.521,493444.5,1456.021,1,28.413,231.214,434.015,202.819,405.62,608.421,FALSE,FALSE,FALSE,0
"pro","stp",1,"115825","pro_stp_run1_115825","PINK","congr","pc50","pink",1200,527184,90869,73,"pink","pink","pink","pink","1",860.5,"pinkPINK",436.315,528044.5,1296.815,1,28.413,231.214,434.015,202.819,405.62,608.421,FALSE,FALSE,FALSE,0
"pro","stp",1,"115825","pro_stp_run1_115825","PURPLE","congr","mi","purple",1200,530784,90869,74,"purple","purple","purple","purple","1",859.5,"purplePURPLE",439.915,531643.5,1299.415,1,28.413,231.214,434.015,202.819,405.62,608.421,FALSE,FALSE,FALSE,0
"pro","stp",1,"115825","pro_stp_run1_115825","BLUE","incon","mi","purple",3600,534383,90869,75,"unintelligible noise before """"""""purple""""""""- unclear if beginning of utterance or clearing throat","purple","purple","purple","1",1184,"purpleBLUE",443.514,535567,1627.514,1,28.413,231.214,434.015,202.819,405.62,608.421,FALSE,FALSE,FALSE,0
"pro","stp",1,"115825","pro_stp_run1_115825","BLUE","incon","mi","white",2400,540382,90869,76,"white","white","white","white","1",780,"whiteBLUE",449.513,541162,1229.513,1,28.413,231.214,434.015,202.819,405.62,608.421,FALSE,FALSE,FALSE,0
"pro","stp",1,"115825","pro_stp_run1_115825","BLACK","incon","pc50","green",2400,545181,90869,77,"green","green","green","green","1",936.5,"greenBLACK",454.312,546117.5,1390.812,1,28.413,231.214,434.015,202.819,405.62,608.421,FALSE,FALSE,FALSE,0
"pro","stp",1,"115825","pro_stp_run1_115825","GREEN","incon","pc50","pink",3600,549980,90869,78,"pink","pink","pink","pink","1",989.5,"pinkGREEN",459.111,550969.5,1448.611,1,28.413,231.214,434.015,202.819,405.62,608.421,FALSE,FALSE,FALSE,0
"pro","stp",1,"115825","pro_stp_run1_115825","BLUE","congr","mi","blue",1200,555980,90869,79,"blue","blue","blue","blue","1",996,"blueBLUE",465.111,556976,1461.111,1,28.413,231.214,434.015,202.819,405.62,608.421,FALSE,FALSE,FALSE,0
"pro","stp",1,"115825","pro_stp_run1_115825","PURPLE","incon","mi","blue",3600,559579,90869,80,"blue","blue","blue","blue","1",946,"bluePURPLE",468.71,560525,1414.71,1,28.413,231.214,434.015,202.819,405.62,608.421,FALSE,FALSE,FALSE,0
"pro","stp",1,"115825","pro_stp_run1_115825","BLUE","congr","mi","blue",3600,565578,90869,81,"blue","blue","blue","blue","1",854.5,"blueBLUE",474.709,566432.5,1329.209,1,28.413,231.214,434.015,202.819,405.62,608.421,FALSE,FALSE,FALSE,0
"pro","stp",1,"115825","pro_stp_run1_115825","PINK","incon","pc50","black",1200,571577,90869,82,"black","black","black","black","1",1036.5,"blackPINK",480.708,572613.5,1517.208,1,28.413,231.214,434.015,202.819,405.62,608.421,FALSE,FALSE,FALSE,0
"pro","stp",1,"115825","pro_stp_run1_115825","YELLOW","congr","pc50","yellow",2400,575176,90869,83,"yellow","yellow","yellow","yellow","1",790.5,"yellowYELLOW",484.307,575966.5,1274.807,1,28.413,231.214,434.015,202.819,405.62,608.421,FALSE,FALSE,FALSE,0
"pro","stp",1,"115825","pro_stp_run1_115825","BLACK","congr","pc50","black",2400,579976,90869,84,"black","black","black","black","1",905,"blackBLACK",489.107,580881,1394.107,1,28.413,231.214,434.015,202.819,405.62,608.421,FALSE,FALSE,FALSE,0
"pro","stp",1,"115825","pro_stp_run1_115825","GREEN","incon","pc50","yellow",1200,584775,90869,85,"yellow","yellow","yellow","yellow","1",927,"yellowGREEN",493.906,585702,1420.906,1,28.413,231.214,434.015,202.819,405.62,608.421,FALSE,FALSE,FALSE,0
"pro","stp",1,"115825","pro_stp_run1_115825","WHITE","incon","mi","blue",1200,588374,90869,86,"blue","blue","blue","blue","1",1034,"blueWHITE",497.505,589408,1531.505,1,28.413,231.214,434.015,202.819,405.62,608.421,FALSE,FALSE,FALSE,0
"pro","stp",1,"115825","pro_stp_run1_115825","RED","congr","mi","red",2400,591974,90869,87,"red","red","red","red","1",1122,"redRED",501.105,593096,1623.105,1,28.413,231.214,434.015,202.819,405.62,608.421,FALSE,FALSE,FALSE,0
"pro","stp",1,"115825","pro_stp_run1_115825","WHITE","incon","mi","red",3600,596790,90869,88,"red","red","red","red","1",786.5,"redWHITE",505.921,597576.5,1292.421,1,28.413,231.214,434.015,202.819,405.62,608.421,FALSE,FALSE,FALSE,0
"pro","stp",1,"115825","pro_stp_run1_115825","BLUE","incon","mi","red",3600,602789,90869,89,"red","red","red","red","1",758.5,"redBLUE",511.92,603547.5,1270.42,1,28.413,231.214,434.015,202.819,405.62,608.421,FALSE,FALSE,FALSE,0
"pro","stp",1,"115825","pro_stp_run1_115825","WHITE","congr","mi","white",1200,608788,90869,90,"white","white","white","white","1",1087,"whiteWHITE",517.919,609875,1604.919,1,28.413,231.214,434.015,202.819,405.62,608.421,FALSE,FALSE,FALSE,0
"pro","stp",1,"115825","pro_stp_run1_115825","BLUE","incon","mi","white",3600,612387,90869,91,"white","white","white","white","1",1078,"whiteBLUE",521.518,613465,1599.518,1,28.413,231.214,434.015,202.819,405.62,608.421,FALSE,FALSE,FALSE,0
"pro","stp",1,"115825","pro_stp_run1_115825","YELLOW","incon","pc50","black",2400,618386,90869,92,"black","black","black","black","1",842.5,"blackYELLOW",527.517,619228.5,1370.017,1,28.413,231.214,434.015,202.819,405.62,608.421,FALSE,FALSE,FALSE,0
"pro","stp",1,"115825","pro_stp_run1_115825","RED","incon","mi","white",2400,623186,90869,93,"white","white","white","white","1",851.5,"whiteRED",532.317,624037.5,1383.817,1,28.413,231.214,434.015,202.819,405.62,608.421,FALSE,FALSE,FALSE,0
"pro","stp",1,"115825","pro_stp_run1_115825","GREEN","congr","pc50","green",2400,627985,90869,94,"green","green","green","green","1",849,"greenGREEN",537.116,628834,1386.116,1,28.413,231.214,434.015,202.819,405.62,608.421,FALSE,FALSE,FALSE,0
"pro","stp",1,"115825","pro_stp_run1_115825","PURPLE","congr","mi","purple",1200,632784,90869,95,"purple","purple","purple","purple","1",938,"purplePURPLE",541.915,633722,1479.915,1,28.413,231.214,434.015,202.819,405.62,608.421,FALSE,FALSE,FALSE,0
"pro","stp",1,"115825","pro_stp_run1_115825","WHITE","incon","mi","purple",3600,636383,90869,96,"purple","purple","purple","purple","1",1078.5,"purpleWHITE",545.514,637461.5,1624.014,1,28.413,231.214,434.015,202.819,405.62,608.421,FALSE,FALSE,FALSE,0
"pro","stp",1,"115825","pro_stp_run1_115825","RED","incon","mi","blue",2400,642382,90869,97,"blue","blue","blue","blue","1",1091,"blueRED",551.513,643473,1642.513,1,28.413,231.214,434.015,202.819,405.62,608.421,FALSE,FALSE,FALSE,0
"pro","stp",1,"115825","pro_stp_run1_115825","GREEN","congr","pc50","green",3600,647182,90869,98,"green","green","green","green","1",919,"greenGREEN",556.313,648101,1475.313,1,28.413,231.214,434.015,202.819,405.62,608.421,FALSE,FALSE,FALSE,0
"pro","stp",1,"115825","pro_stp_run1_115825","RED","incon","mi","blue",1200,653181,90869,99,"blue","blue","blue","blue","1",1322,"blueRED",562.312,654503,1884.312,1,28.413,231.214,434.015,202.819,405.62,608.421,FALSE,FALSE,FALSE,0
"pro","stp",1,"115825","pro_stp_run1_115825","RED","incon","mi","purple",2400,656780,90869,100,"purple","purple","purple","purple","1",940.5,"purpleRED",565.911,657720.5,1506.411,1,28.413,231.214,434.015,202.819,405.62,608.421,FALSE,FALSE,FALSE,0
"pro","stp",1,"115825","pro_stp_run1_115825","PURPLE","incon","mi","red",3600,661579,90869,101,"red","red","red","red","1",1112.5,"redPURPLE",570.71,662691.5,1683.21,1,28.413,231.214,434.015,202.819,405.62,608.421,FALSE,FALSE,FALSE,0
"pro","stp",1,"115825","pro_stp_run1_115825","PURPLE","incon","mi","blue",1200,667578,90869,102,"blue","blue","blue","blue","1",1232,"bluePURPLE",576.709,668810,1808.709,1,28.413,231.214,434.015,202.819,405.62,608.421,FALSE,FALSE,FALSE,0
"pro","stp",1,"115825","pro_stp_run1_115825","YELLOW","incon","pc50","pink",1200,671178,90869,103,"pink","pink","pink","pink","1",1167.5,"pinkYELLOW",580.309,672345.5,1747.809,1,28.413,231.214,434.015,202.819,405.62,608.421,FALSE,FALSE,FALSE,0
"pro","stp",1,"115825","pro_stp_run1_115825","YELLOW","congr","pc50","yellow",2400,674777,90869,104,"yellow","yellow","yellow","yellow","1",1012.5,"yellowYELLOW",583.908,675789.5,1596.408,1,28.413,231.214,434.015,202.819,405.62,608.421,FALSE,FALSE,FALSE,0
"pro","stp",1,"115825","pro_stp_run1_115825","PURPLE","incon","mi","white",3600,679577,90869,105,"white","white","white","white","1",967.5,"whitePURPLE",588.708,680544.5,1556.208,1,28.413,231.214,434.015,202.819,405.62,608.421,FALSE,FALSE,FALSE,0
"pro","stp",1,"115825","pro_stp_run1_115825","RED","incon","mi","purple",3600,685576,90869,106,"purple","purple","purple","purple","1",1031.5,"purpleRED",594.707,686607.5,1626.207,1,28.413,231.214,434.015,202.819,405.62,608.421,FALSE,FALSE,FALSE,0
"pro","stp",1,"115825","pro_stp_run1_115825","WHITE","incon","mi","red",1200,691575,90869,107,"red","red","red","red","1",1240.5,"redWHITE",600.706,692815.5,1841.206,1,28.413,231.214,434.015,202.819,405.62,608.421,FALSE,FALSE,FALSE,0
"pro","stp",1,"115825","pro_stp_run1_115825","WHITE","incon","mi","purple",2400,695174,90869,108,"purple","purple","purple","purple","1",1436,"purpleWHITE",604.305,696610,2040.305,1,28.413,231.214,434.015,202.819,405.62,608.421,FALSE,FALSE,FALSE,0
"pro","stp",2,"115825","pro_stp_run2_115825","BLACK","congr","pc50","black",1200,63058,32345,1,"black","black","black","black","1",859,"blackBLACK",30.713,63917,889.713,1,28.413,231.214,434.016,202.836,405.62,608.421,FALSE,FALSE,FALSE,0
"pro","stp",2,"115825","pro_stp_run2_115825","RED","incon","mi","blue",3600,66657,32345,2,"blue","blue","blue","blue","1",951,"blueRED",34.312,67608,985.312,1,28.413,231.214,434.016,202.836,405.62,608.421,FALSE,FALSE,FALSE,0
"pro","stp",2,"115825","pro_stp_run2_115825","BLUE","incon","mi","purple",2400,72656,32345,3,"purple","purple","purple","purple","1",1195,"purpleBLUE",40.311,73851,1235.311,1,28.413,231.214,434.016,202.836,405.62,608.421,FALSE,FALSE,FALSE,0
"pro","stp",2,"115825","pro_stp_run2_115825","BLACK","incon","pc50","yellow",1200,77456,32345,4,"yellow","yellow","yellow","yellow","1",861.5,"yellowBLACK",45.111,78317.5,906.611,1,28.413,231.214,434.016,202.836,405.62,608.421,FALSE,FALSE,FALSE,0
"pro","stp",2,"115825","pro_stp_run2_115825","BLUE","congr","mi","blue",2400,81055,32345,5,"blue","blue","blue","blue","1",949.5,"blueBLUE",48.71,82004.5,998.21,1,28.413,231.214,434.016,202.836,405.62,608.421,FALSE,FALSE,FALSE,0
"pro","stp",2,"115825","pro_stp_run2_115825","BLUE","incon","mi","red",3600,85854,32345,6,"red","red","red","red","1",781,"redBLUE",53.509,86635,834.509,1,28.413,231.214,434.016,202.836,405.62,608.421,FALSE,FALSE,FALSE,0
"pro","stp",2,"115825","pro_stp_run2_115825","RED","incon","mi","purple",2400,91853,32345,7,"purple","purple","purple","purple","1",1389.5,"purpleRED",59.508,93242.5,1449.008,1,28.413,231.214,434.016,202.836,405.62,608.421,FALSE,FALSE,FALSE,0
"pro","stp",2,"115825","pro_stp_run2_115825","BLUE","incon","mi","purple",1200,96653,32345,8,"purple","purple","purple","purple","1",969,"purpleBLUE",64.308,97622,1033.308,1,28.413,231.214,434.016,202.836,405.62,608.421,FALSE,FALSE,FALSE,0
"pro","stp",2,"115825","pro_stp_run2_115825","RED","congr","mi","red",2400,100252,32345,9,"red","red","red","red","1",1024.5,"redRED",67.907,101276.5,1092.407,1,28.413,231.214,434.016,202.836,405.62,608.421,FALSE,FALSE,FALSE,0
"pro","stp",2,"115825","pro_stp_run2_115825","WHITE","incon","mi","purple",3600,105068,32345,10,"purple","purple","purple","purple","1",1078,"purpleWHITE",72.723,106146,1150.723,1,28.413,231.214,434.016,202.836,405.62,608.421,FALSE,FALSE,FALSE,0
"pro","stp",2,"115825","pro_stp_run2_115825","PURPLE","congr","mi","purple",1200,111067,32345,11,"purple","purple","purple","purple","1",929,"purplePURPLE",78.722,111996,1007.722,1,28.413,231.214,434.016,202.836,405.62,608.421,FALSE,FALSE,FALSE,0
"pro","stp",2,"115825","pro_stp_run2_115825","GREEN","incon","pc50","black",3600,114666,32345,12,"black","black","black","black","1",953.5,"blackGREEN",82.321,115619.5,1035.821,1,28.413,231.214,434.016,202.836,405.62,608.421,FALSE,FALSE,FALSE,0
"pro","stp",2,"115825","pro_stp_run2_115825","BLUE","incon","mi","red",3600,120665,32345,13,"red","red","red","red","1",1328.5,"redBLUE",88.32,121993.5,1416.82,1,28.413,231.214,434.016,202.836,405.62,608.421,FALSE,FALSE,FALSE,0
"pro","stp",2,"115825","pro_stp_run2_115825","RED","incon","mi","white",2400,126664,32345,14,"white","white","white","white","1",811,"whiteRED",94.319,127475,905.319,1,28.413,231.214,434.016,202.836,405.62,608.421,FALSE,FALSE,FALSE,0
"pro","stp",2,"115825","pro_stp_run2_115825","WHITE","incon","mi","blue",3600,131464,32345,15,"blue","blue","blue","blue","1",933.5,"blueWHITE",99.119,132397.5,1032.619,1,28.413,231.214,434.016,202.836,405.62,608.421,FALSE,FALSE,FALSE,0
"pro","stp",2,"115825","pro_stp_run2_115825","RED","congr","mi","red",1200,137463,32345,16,"red","red","red","red","1",1057.5,"redRED",105.118,138520.5,1162.618,1,28.413,231.214,434.016,202.836,405.62,608.421,FALSE,FALSE,FALSE,0
"pro","stp",2,"115825","pro_stp_run2_115825","WHITE","incon","mi","red",1200,141062,32345,17,"red","red","red","red","1",1329.5,"redWHITE",108.717,142391.5,1438.217,1,28.413,231.214,434.016,202.836,405.62,608.421,FALSE,FALSE,FALSE,0
"pro","stp",2,"115825","pro_stp_run2_115825","PURPLE","incon","mi","white",1200,144662,32345,18,"white","white","white","white","1",853.5,"whitePURPLE",112.317,145515.5,965.817,1,28.413,231.214,434.016,202.836,405.62,608.421,FALSE,FALSE,FALSE,0
"pro","stp",2,"115825","pro_stp_run2_115825","BLACK","incon","pc50","pink",2400,148261,32345,19,"pink","pink","pink","pink","1",909,"pinkBLACK",115.916,149170,1024.916,1,28.413,231.214,434.016,202.836,405.62,608.421,FALSE,FALSE,FALSE,0
"pro","stp",2,"115825","pro_stp_run2_115825","GREEN","congr","pc50","green",1200,153060,32345,20,"green","green","green","green","1",861.5,"greenGREEN",120.715,153921.5,982.215,1,28.413,231.214,434.016,202.836,405.62,608.421,FALSE,FALSE,FALSE,0
"pro","stp",2,"115825","pro_stp_run2_115825","PURPLE","incon","mi","blue",3600,156660,32345,21,"blue","blue","blue","blue","1",1183.5,"bluePURPLE",124.315,157843.5,1307.815,1,28.413,231.214,434.016,202.836,405.62,608.421,FALSE,FALSE,FALSE,0
"pro","stp",2,"115825","pro_stp_run2_115825","PURPLE","incon","mi","white",2400,162659,32345,22,"white","white","white","white","1",867.5,"whitePURPLE",130.314,163526.5,997.814,1,28.413,231.214,434.016,202.836,405.62,608.421,FALSE,FALSE,FALSE,0
"pro","stp",2,"115825","pro_stp_run2_115825","WHITE","congr","mi","white",3600,167458,32345,23,"white","white","white","white","1",702,"whiteWHITE",135.113,168160,837.113,1,28.413,231.214,434.016,202.836,405.62,608.421,FALSE,FALSE,FALSE,0
"pro","stp",2,"115825","pro_stp_run2_115825","PINK","congr","pc50","pink",2400,173457,32345,24,"pink","pink","pink","pink","1",874,"pinkPINK",141.112,174331,1015.112,1,28.413,231.214,434.016,202.836,405.62,608.421,FALSE,FALSE,FALSE,0
"pro","stp",2,"115825","pro_stp_run2_115825","BLACK","congr","pc50","black",2400,178256,32345,25,"black","black","black","black","1",895.5,"blackBLACK",145.911,179151.5,1041.411,1,28.413,231.214,434.016,202.836,405.62,608.421,FALSE,FALSE,FALSE,0
"pro","stp",2,"115825","pro_stp_run2_115825","YELLOW","incon","pc50","green",3600,183056,32345,26,"green- clears throat after","green, clears throat after","green","green","1",1088.5,"greenYELLOW",150.711,184144.5,1239.211,1,28.413,231.214,434.016,202.836,405.62,608.421,FALSE,FALSE,FALSE,0
"pro","stp",2,"115825","pro_stp_run2_115825","WHITE","incon","mi","blue",2400,189055,32345,27,"blue","blue","blue","blue","1",1040,"blueWHITE",156.71,190095,1196.71,1,28.413,231.214,434.016,202.836,405.62,608.421,FALSE,FALSE,FALSE,0
"pro","stp",2,"115825","pro_stp_run2_115825","WHITE","congr","mi","white",1200,193854,32345,28,"white","white","white","white","1",1022,"whiteWHITE",161.509,194876,1183.509,1,28.413,231.214,434.016,202.836,405.62,608.421,FALSE,FALSE,FALSE,0
"pro","stp",2,"115825","pro_stp_run2_115825","PURPLE","incon","mi","red",2400,197453,32345,29,"red","red","red","red","1",1263.5,"redPURPLE",165.108,198716.5,1428.608,1,28.413,231.214,434.016,202.836,405.62,608.421,FALSE,FALSE,FALSE,0
"pro","stp",2,"115825","pro_stp_run2_115825","PINK","incon","pc50","green",3600,202253,32345,30,"green","green","green","green","1",1122.5,"greenPINK",169.908,203375.5,1292.408,1,28.413,231.214,434.016,202.836,405.62,608.421,FALSE,FALSE,FALSE,0
"pro","stp",2,"115825","pro_stp_run2_115825","PINK","incon","pc50","yellow",2400,208252,32345,31,"yellow","yellow","yellow","yellow","1",963,"yellowPINK",175.907,209215,1138.907,1,28.413,231.214,434.016,202.836,405.62,608.421,FALSE,FALSE,FALSE,0
"pro","stp",2,"115825","pro_stp_run2_115825","YELLOW","congr","pc50","yellow",1200,213067,32345,32,"yellow","yellow","yellow","yellow","1",800.5,"yellowYELLOW",180.722,213867.5,981.222,1,28.413,231.214,434.016,202.836,405.62,608.421,FALSE,FALSE,FALSE,0
"pro","stp",2,"115825","pro_stp_run2_115825","PINK","congr","pc50","pink",3600,216667,32345,33,"pink","pink","pink","pink","1",1234,"pinkPINK",184.322,217901,1418.322,1,28.413,231.214,434.016,202.836,405.62,608.421,FALSE,FALSE,FALSE,0
"pro","stp",2,"115825","pro_stp_run2_115825","RED","incon","mi","white",1200,222666,32345,34,"white","white","white","white","1",955.5,"whiteRED",190.321,223621.5,1145.821,1,28.413,231.214,434.016,202.836,405.62,608.421,FALSE,FALSE,FALSE,0
"pro","stp",2,"115825","pro_stp_run2_115825","BLUE","incon","mi","white",3600,226265,32345,35,"white","white","white","white","1",968.5,"whiteBLUE",193.92,227233.5,1162.42,1,28.413,231.214,434.016,202.836,405.62,608.421,FALSE,FALSE,FALSE,0
"pro","stp",2,"115825","pro_stp_run2_115825","PURPLE","incon","mi","red",1200,232264,32345,36,"red","red","red","red","1",1002.5,"redPURPLE",199.919,233266.5,1202.419,1,28.413,231.214,434.016,202.836,405.62,608.421,FALSE,FALSE,FALSE,0
"pro","stp",2,"115825","pro_stp_run2_115825","PURPLE","incon","mi","red",2400,265859,32345,37,"red","red","red","red","1",1001.5,"redPURPLE",233.514,266860.5,1235.014,1,28.413,231.214,434.016,202.836,405.62,608.421,FALSE,FALSE,FALSE,0
"pro","stp",2,"115825","pro_stp_run2_115825","PURPLE","incon","mi","white",3600,270658,32345,38,"white","white","white","white","1",1187.5,"whitePURPLE",238.313,271845.5,1425.813,1,28.413,231.214,434.016,202.836,405.62,608.421,FALSE,FALSE,FALSE,0
"pro","stp",2,"115825","pro_stp_run2_115825","GREEN","congr","pc50","green",2400,276657,32345,39,"green","green","green","green","1",871.5,"greenGREEN",244.312,277528.5,1115.812,1,28.413,231.214,434.016,202.836,405.62,608.421,FALSE,FALSE,FALSE,0
"pro","stp",2,"115825","pro_stp_run2_115825","PURPLE","congr","mi","purple",3600,281457,32345,40,"purple","purple","purple","purple","1",949.5,"purplePURPLE",249.112,282406.5,1198.612,1,28.413,231.214,434.016,202.836,405.62,608.421,FALSE,FALSE,FALSE,0
"pro","stp",2,"115825","pro_stp_run2_115825","RED","incon","mi","purple",1200,287456,32345,41,"purple","purple","purple","purple","1",1082.5,"purpleRED",255.111,288538.5,1337.611,1,28.413,231.214,434.016,202.836,405.62,608.421,FALSE,FALSE,FALSE,0
"pro","stp",2,"115825","pro_stp_run2_115825","BLUE","incon","mi","purple",1200,291055,32345,42,"purple","purple","purple","purple","1",1194,"purpleBLUE",258.71,292249,1452.71,1,28.413,231.214,434.016,202.836,405.62,608.421,FALSE,FALSE,FALSE,0
"pro","stp",2,"115825","pro_stp_run2_115825","WHITE","incon","mi","blue",3600,294655,32345,43,"blue","blue","blue","blue","1",1392.5,"blueWHITE",262.31,296047.5,1654.81,1,28.413,231.214,434.016,202.836,405.62,608.421,FALSE,FALSE,FALSE,0
"pro","stp",2,"115825","pro_stp_run2_115825","PURPLE","incon","mi","blue",1200,300654,32345,44,"blue","blue","blue","blue","1",961,"bluePURPLE",268.309,301615,1229.309,1,28.413,231.214,434.016,202.836,405.62,608.421,FALSE,FALSE,FALSE,0
"pro","stp",2,"115825","pro_stp_run2_115825","WHITE","congr","mi","white",1200,304253,32345,45,"white","white","white","white","1",984,"whiteWHITE",271.908,305237,1255.908,1,28.413,231.214,434.016,202.836,405.62,608.421,FALSE,FALSE,FALSE,0
"pro","stp",2,"115825","pro_stp_run2_115825","BLUE","congr","mi","blue",2400,307852,32345,46,"blue","blue","blue","blue","1",1031,"blueBLUE",275.507,308883,1306.507,1,28.413,231.214,434.016,202.836,405.62,608.421,FALSE,FALSE,FALSE,0
"pro","stp",2,"115825","pro_stp_run2_115825","PURPLE","incon","mi","red",2400,312652,32345,47,"red","red","red","red","1",1189.5,"redPURPLE",280.307,313841.5,1469.807,1,28.413,231.214,434.016,202.836,405.62,608.421,FALSE,FALSE,FALSE,0
"pro","stp",2,"115825","pro_stp_run2_115825","PINK","congr","pc50","pink",3600,317468,32345,48,"pink","pink","pink","pink","1",1291,"pinkPINK",285.123,318759,1576.123,1,28.413,231.214,434.016,202.836,405.62,608.421,FALSE,FALSE,FALSE,0
"pro","stp",2,"115825","pro_stp_run2_115825","BLUE","incon","mi","red",2400,323467,32345,49,"red","red","red","red","1",744,"redBLUE",291.122,324211,1035.122,1,28.413,231.214,434.016,202.836,405.62,608.421,FALSE,FALSE,FALSE,0
"pro","stp",2,"115825","pro_stp_run2_115825","BLUE","incon","mi","white",1200,328266,32345,50,"white","white","white","white","1",908,"whiteBLUE",295.921,329174,1203.921,1,28.413,231.214,434.016,202.836,405.62,608.421,FALSE,FALSE,FALSE,0
"pro","stp",2,"115825","pro_stp_run2_115825","BLACK","congr","pc50","black",3600,331865,32345,51,"black","black","black","black","1",796.5,"blackBLACK",299.52,332661.5,1096.02,1,28.413,231.214,434.016,202.836,405.62,608.421,FALSE,FALSE,FALSE,0
"pro","stp",2,"115825","pro_stp_run2_115825","RED","incon","mi","white",3600,337864,32345,52,"white","white","white","white","1",1166,"whiteRED",305.519,339030,1471.519,1,28.413,231.214,434.016,202.836,405.62,608.421,FALSE,FALSE,FALSE,0
"pro","stp",2,"115825","pro_stp_run2_115825","PINK","incon","pc50","green",2400,343863,32345,53,"green","green","green","green","1",1177,"greenPINK",311.518,345040,1488.518,1,28.413,231.214,434.016,202.836,405.62,608.421,FALSE,FALSE,FALSE,0
"pro","stp",2,"115825","pro_stp_run2_115825","BLACK","congr","pc50","black",1200,348663,32345,54,"black","black","black","black","1",858,"blackBLACK",316.318,349521,1174.318,1,28.413,231.214,434.016,202.836,405.62,608.421,FALSE,FALSE,FALSE,0
"pro","stp",2,"115825","pro_stp_run2_115825","WHITE","incon","mi","blue",3600,352262,32345,55,"blue","blue","blue","blue","1",1110,"blueWHITE",319.917,353372,1429.917,1,28.413,231.214,434.016,202.836,405.62,608.421,FALSE,FALSE,FALSE,0
"pro","stp",2,"115825","pro_stp_run2_115825","BLUE","incon","mi","red",3600,358261,32345,56,"no-answer","no answer","red","","no.response",0,"redBLUE",325.916,359625,1689.916,0,28.413,231.214,434.016,202.836,405.62,608.421,FALSE,TRUE,FALSE,1
"pro","stp",2,"115825","pro_stp_run2_115825","RED","congr","mi","red",2400,364260,32345,57,"red","red","red","red","1",1099,"redRED",331.915,365359,1430.915,1,28.413,231.214,434.016,202.836,405.62,608.421,FALSE,FALSE,FALSE,0
"pro","stp",2,"115825","pro_stp_run2_115825","YELLOW","congr","pc50","yellow",2400,369059,32345,58,"yellow","yellow","yellow","yellow","1",785.5,"yellowYELLOW",336.714,369844.5,1122.214,1,28.413,231.214,434.016,202.836,405.62,608.421,FALSE,FALSE,FALSE,0
"pro","stp",2,"115825","pro_stp_run2_115825","RED","congr","mi","red",1200,373859,32345,59,"red","red","red","red","1",803,"redRED",341.514,374662,1144.514,1,28.413,231.214,434.016,202.836,405.62,608.421,FALSE,FALSE,FALSE,0
"pro","stp",2,"115825","pro_stp_run2_115825","WHITE","incon","mi","purple",1200,377458,32345,60,"purple","purple","purple","purple","1",874.5,"purpleWHITE",345.113,378332.5,1219.613,1,28.413,231.214,434.016,202.836,405.62,608.421,FALSE,FALSE,FALSE,0
"pro","stp",2,"115825","pro_stp_run2_115825","RED","incon","mi","white",1200,381057,32345,61,"white","white","white","white","1",786.5,"whiteRED",348.712,381843.5,1135.212,1,28.413,231.214,434.016,202.836,405.62,608.421,FALSE,FALSE,FALSE,0
"pro","stp",2,"115825","pro_stp_run2_115825","PURPLE","incon","mi","white",2400,384657,32345,62,"white","white","white","white","1",787,"whitePURPLE",352.312,385444,1139.312,1,28.413,231.214,434.016,202.836,405.62,608.421,FALSE,FALSE,FALSE,0
"pro","stp",2,"115825","pro_stp_run2_115825","WHITE","congr","mi","white",3600,389456,32345,63,"white","white","white","white","1",809.5,"whiteWHITE",357.111,390265.5,1166.611,1,28.413,231.214,434.016,202.836,405.62,608.421,FALSE,FALSE,FALSE,0
"pro","stp",2,"115825","pro_stp_run2_115825","PINK","congr","pc50","pink",1200,395455,32345,64,"pink","pink","pink","pink","1",812.5,"pinkPINK",363.11,396267.5,1175.61,1,28.413,231.214,434.016,202.836,405.62,608.421,FALSE,FALSE,FALSE,0
"pro","stp",2,"115825","pro_stp_run2_115825","BLACK","incon","pc50","yellow",2400,399055,32345,65,"yellow","yellow","yellow","yellow","1",835.5,"yellowBLACK",366.71,399890.5,1202.21,1,28.413,231.214,434.016,202.836,405.62,608.421,FALSE,FALSE,FALSE,0
"pro","stp",2,"115825","pro_stp_run2_115825","BLUE","incon","mi","purple",3600,403854,32345,66,"purple- possible unintelligible noise before utterance?","purple","purple","purple","1",1204,"purpleBLUE",371.509,405058,1575.509,1,28.413,231.214,434.016,202.836,405.62,608.421,FALSE,FALSE,FALSE,0
"pro","stp",2,"115825","pro_stp_run2_115825","PINK","incon","pc50","yellow",3600,409853,32345,67,"yellow","yellow","yellow","yellow","1",935,"yellowPINK",377.508,410788,1312.508,1,28.413,231.214,434.016,202.836,405.62,608.421,FALSE,FALSE,FALSE,0
"pro","stp",2,"115825","pro_stp_run2_115825","WHITE","incon","mi","red",1200,415852,32345,68,"red","red","red","red","1",984,"redWHITE",383.507,416836,1367.507,1,28.413,231.214,434.016,202.836,405.62,608.421,FALSE,FALSE,FALSE,0
"pro","stp",2,"115825","pro_stp_run2_115825","RED","incon","mi","blue",1200,419468,32345,69,"blue","blue","blue","blue","1",959,"blueRED",387.123,420427,1346.123,1,28.413,231.214,434.016,202.836,405.62,608.421,FALSE,FALSE,FALSE,0
"pro","stp",2,"115825","pro_stp_run2_115825","BLACK","incon","pc50","pink",2400,423068,32345,70,"pink","pink","pink","pink","1",954,"pinkBLACK",390.723,424022,1344.723,1,28.413,231.214,434.016,202.836,405.62,608.421,FALSE,FALSE,FALSE,0
"pro","stp",2,"115825","pro_stp_run2_115825","YELLOW","incon","pc50","green",2400,427867,32345,71,"green","green","green","green","1",1065,"greenYELLOW",395.522,428932,1460.522,1,28.413,231.214,434.016,202.836,405.62,608.421,FALSE,FALSE,FALSE,0
"pro","stp",2,"115825","pro_stp_run2_115825","GREEN","incon","pc50","black",3600,432666,32345,72,"black","black","black","black","1",888,"blackGREEN",400.321,433554,1288.321,1,28.413,231.214,434.016,202.836,405.62,608.421,FALSE,FALSE,FALSE,0
"pro","stp",2,"115825","pro_stp_run2_115825","WHITE","congr","mi","white",3600,468660,32345,73,"white","white","white","white","1",1104.5,"whiteWHITE",436.315,469764.5,1540.815,1,28.413,231.214,434.016,202.836,405.62,608.421,FALSE,FALSE,FALSE,0
"pro","stp",2,"115825","pro_stp_run2_115825","BLACK","congr","pc50","black",1200,474659,32345,74,"black","black","black","black","1",1182,"blackBLACK",442.314,475841,1624.314,1,28.413,231.214,434.016,202.836,405.62,608.421,FALSE,FALSE,FALSE,0
"pro","stp",2,"115825","pro_stp_run2_115825","RED","incon","mi","white",3600,478259,32345,75,"white","white","white","white","1",1009,"whiteRED",445.914,479268,1454.914,1,28.413,231.214,434.016,202.836,405.62,608.421,FALSE,FALSE,FALSE,0
"pro","stp",2,"115825","pro_stp_run2_115825","RED","congr","mi","red",1200,484258,32345,76,"red","red","red","red","1",983,"redRED",451.913,485241,1434.913,1,28.413,231.214,434.016,202.836,405.62,608.421,FALSE,FALSE,FALSE,0
"pro","stp",2,"115825","pro_stp_run2_115825","BLUE","congr","mi","blue",2400,487857,32345,77,"blue","blue","blue","blue","1",799.5,"blueBLUE",455.512,488656.5,1255.012,1,28.413,231.214,434.016,202.836,405.62,608.421,FALSE,FALSE,FALSE,0
"pro","stp",2,"115825","pro_stp_run2_115825","PURPLE","congr","mi","purple",2400,492656,32345,78,"purple- muffled","purple","purple","purple","1",1230.5,"purplePURPLE",460.311,493886.5,1690.811,1,28.413,231.214,434.016,202.836,405.62,608.421,FALSE,FALSE,FALSE,0
"pro","stp",2,"115825","pro_stp_run2_115825","WHITE","congr","mi","white",3600,497456,32345,79,"white","white","white","white","1",796,"whiteWHITE",465.111,498252,1261.111,1,28.413,231.214,434.016,202.836,405.62,608.421,FALSE,FALSE,FALSE,0
"pro","stp",2,"115825","pro_stp_run2_115825","BLUE","incon","mi","red",1200,503455,32345,80,"no-answer","no answer","red","","no.response",0,"redBLUE",471.11,NA,NA,0,28.413,231.214,434.016,202.836,405.62,608.421,FALSE,TRUE,FALSE,1
"pro","stp",2,"115825","pro_stp_run2_115825","YELLOW","congr","pc50","yellow",1200,507054,32345,81,"yellow","yellow","yellow","yellow","1",703.5,"yellowYELLOW",474.709,507757.5,1178.209,1,28.413,231.214,434.016,202.836,405.62,608.421,FALSE,FALSE,FALSE,0
"pro","stp",2,"115825","pro_stp_run2_115825","PURPLE","incon","mi","white",2400,510654,32345,82,"white","white","white","white","1",1056.5,"whitePURPLE",478.309,511710.5,1534.809,1,28.413,231.214,434.016,202.836,405.62,608.421,FALSE,FALSE,FALSE,0
"pro","stp",2,"115825","pro_stp_run2_115825","WHITE","incon","mi","purple",2400,515453,32345,83,"purple","purple","purple","purple","1",866.5,"purpleWHITE",483.108,516319.5,1349.608,1,28.413,231.214,434.016,202.836,405.62,608.421,FALSE,FALSE,FALSE,0
"pro","stp",2,"115825","pro_stp_run2_115825","PINK","incon","pc50","green",3600,520252,32345,84,"pink","pink","green","pink","0",898.5,"greenPINK",487.907,521150.5,1386.407,0,28.413,231.214,434.016,202.836,405.62,608.421,FALSE,FALSE,FALSE,1
"pro","stp",2,"115825","pro_stp_run2_115825","PURPLE","incon","mi","red",1200,526268,32345,85,"red","red","red","red","1",921.5,"redPURPLE",493.923,527189.5,1415.423,1,28.413,231.214,434.016,202.836,405.62,608.421,FALSE,FALSE,FALSE,0
"pro","stp",2,"115825","pro_stp_run2_115825","PINK","congr","pc50","pink",2400,529867,32345,86,"pink","pink","pink","pink","1",762,"pinkPINK",497.522,530629,1259.522,1,28.413,231.214,434.016,202.836,405.62,608.421,FALSE,FALSE,FALSE,0
"pro","stp",2,"115825","pro_stp_run2_115825","PURPLE","incon","mi","red",1200,534666,32345,87,"red","red","red","red","1",1091.5,"redPURPLE",502.321,535757.5,1593.821,1,28.413,231.214,434.016,202.836,405.62,608.421,FALSE,FALSE,FALSE,0
"pro","stp",2,"115825","pro_stp_run2_115825","PINK","incon","pc50","yellow",1200,538266,32345,88,"yellow","yellow","yellow","yellow","1",1296.5,"yellowPINK",505.921,539562.5,1802.421,1,28.413,231.214,434.016,202.836,405.62,608.421,FALSE,FALSE,FALSE,0
"pro","stp",2,"115825","pro_stp_run2_115825","BLACK","incon","pc50","pink",3600,541865,32345,89,"pink","pink","pink","pink","1",1559,"pinkBLACK",509.52,543424,2068.52,1,28.413,231.214,434.016,202.836,405.62,608.421,FALSE,FALSE,FALSE,0
"pro","stp",2,"115825","pro_stp_run2_115825","WHITE","incon","mi","blue",3600,547864,32345,90,"blue","blue","blue","blue","1",893,"blueWHITE",515.519,548757,1408.519,1,28.413,231.214,434.016,202.836,405.62,608.421,FALSE,FALSE,FALSE,0
"pro","stp",2,"115825","pro_stp_run2_115825","RED","incon","mi","blue",1200,553863,32345,91,"blue","blue","blue","blue","1",981.5,"blueRED",521.518,554844.5,1503.018,1,28.413,231.214,434.016,202.836,405.62,608.421,FALSE,FALSE,FALSE,0
